timestamp,accel_x,accel_y,accel_z,mag_x,mag_y,mag_z,mag_magnitude,gyro_x,gyro_y,gyro_z,temperature,quat_w,quat_x,quat_y,quat_z,roll,pitch,yaw
0.004106760025024414,0.83688970435,0.34037901484999994,1.4811571894,0.3899,-0.09814000000000002,0.29638000000000003,0.49949431828600416,5.003444449770395,4.984049478457608,3.968333303643858,23.5,0.9992610792936444,0.026588728987304685,0.015555922538074644,0.022985825495948485,3.0884390436359612,1.711480517151562,2.6816064888940505
0.01919865608215332,0.8973084749999999,-0.4354937132,9.7794659662,0.3899,-0.09814000000000002,0.29638000000000003,0.49949431828600416,-0.573755174977486,-0.48884490686796184,-0.13530665026086042,23.5,0.9994300139342339,0.016442944315441008,0.009318455720827198,0.027972186411422222,1.913673534916115,1.0145549198356223,3.2233125023379907
0.033461809158325195,0.9074779710499999,-0.44805603185,9.826724212550001,0.38514000000000004,-0.10542000000000001,0.30156,0.5003844817737657,0.04688390703169768,0.021532999646480044,-0.005345070834232635,24.5,0.9993653013670667,0.009472001725464509,0.0057913559925955186,0.03384871936413077,1.1073210391948685,0.6264919967701773,3.8858119519869474
0.048142433166503906,0.8949156524,-0.42532421714999996,9.842875765099999,0.38514000000000004,-0.10542000000000001,0.30156,0.5003844817737657,0.038484510006474966,0.018173240836390957,-0.007330382858376185,24.5,0.9992015654309692,0.002672433668589147,0.002013300481369418,0.03981251511471709,0.3151827426473359,0.2183314461396806,4.564010317478532
0.06314301490783691,0.8961120637,-0.41216369284999993,9.836893708599998,0.38850000000000007,-0.10710000000000001,0.29512,0.4994982226194604,0.03222314131494531,0.015118914645400881,-0.007941248096574201,24.5,0.9989332288066988,-0.0038079694054911615,-0.0020397252380659867,0.04597546384522631,-0.44664936445725884,-0.2134245401745754,5.271138944857739
0.0771636962890625,0.8853443619999999,-0.4133601041499999,9.835697297299998,0.38850000000000007,-0.10710000000000001,0.29512,0.4994982226194604,0.02138028333693054,0.012370021073509813,-0.010384709049366262,24.5,0.998564646149632,-0.010060031852019783,-0.006362281441521175,0.0522203465524244,-1.1893782335408658,-0.6678330662136235,5.994090460957266
0.09464240074157715,0.8775676885499999,-0.43369909624999997,9.94636534255,0.3831800000000001,-0.10542000000000001,0.29232,0.49334700890955047,0.009773843811168246,0.005192354524683131,-0.010995574287564279,24.5,0.9980951521544705,-0.016076132351395673,-0.010962934159230536,0.058544336096544566,-1.9129648843060192,-1.146093425584661,6.7329325627011
0.1091299057006836,1.040877831,-0.430708068,9.84586679335,0.3896200000000001,-0.10038000000000001,0.3017,0.5028944012414536,0.002138028333693054,0.0015271630954950385,-0.012522737383059314,24.5,0.9975693637622001,-0.02093035652720468,-0.01753283236987412,0.06410838048035149,-2.523545401217401,-1.850792775001796,7.394834543804628
0.12444162368774414,0.8817551281,-0.41874395499999995,9.869196813699999,0.3896200000000001,-0.10038000000000001,0.3017,0.5028944012414536,-0.012675453692608819,-0.0027488935718910697,-0.01114829059711378,24.5,0.9969071228000768,-0.02557710226570727,-0.023478664416989814,0.07050356492658075,-3.1159858686006814,-2.476266020093242,8.158069617618732
0.1387779712677002,0.8961120637,-0.4354937132,9.86500937415,0.38010000000000005,-0.10710000000000001,0.30842,0.5010681754013121,-0.022143864884678056,-0.005345070834232635,-0.014966198335851376,24.5,0.9961242447621479,-0.02998494148269723,-0.028853114170604606,0.07749122585156279,-3.6866041112360914,-3.028657582372498,8.993966299573808
0.15278148651123047,0.8967102693499999,-0.4295116567,9.851848849849999,0.38010000000000005,-0.10710000000000001,0.30842,0.5010681754013121,-0.03054326190990077,-0.010537425358915765,-0.015118914645400881,24.5,0.9952486479333883,-0.03256593057949288,-0.034706547459366015,0.08494141814041496,-4.063480949526177,-3.6436535636038467,9.885698633311918
0.1675882339477539,0.8781658942,-0.44027935839999993,9.86620578545,0.3896200000000001,-0.10514000000000001,0.29652000000000006,0.5007816634023255,-0.03481931857728687,-0.012675453692608819,-0.014355333097653362,24.5,0.9943713529242818,-0.031496460496178436,-0.040597304403419236,0.09265767283351219,-4.034624455068828,-4.295523424564914,10.798517517434812
0.18161416053771973,0.9092725879999999,-0.41874395499999995,9.848857821599998,0.38738000000000006,-0.11382,0.30366000000000004,0.5052006060962319,-0.0319177086958463,-0.013897184169004852,-0.012522737383059314,24.5,0.9933430423149235,-0.031382727869855874,-0.04396447331545254,0.10174404042533985,-4.101793379432374,-4.643610511298616,11.862732851245962
0.19648146629333496,0.87158563205,-0.4342973019,9.8680004024,0.38738000000000006,-0.11382,0.30366000000000004,0.5052006060962319,-0.038637226316024474,-0.0119118721448613,-0.014202616788103858,24.5,0.9924263494898448,-0.028173400367690296,-0.044950777492292586,0.11079543290596745,-3.7905146982770828,-4.759744962316696,12.897949179895598
0.21091842651367188,0.8901300072,-0.43848474145,9.846464998999998,0.39522,-0.10878000000000002,0.30338000000000004,0.5099719219721808,-0.03344487179134134,-0.01069014166846527,-0.012675453692608819,24.5,0.9922354016533113,-0.01898834013742617,-0.04723121091978632,0.11347935212966327,-2.7854435542557296,-5.130205912908889,13.173650508798241
0.22637629508972168,0.9032905314999999,-0.430708068,9.8548398781,0.39522,-0.10878000000000002,0.30338000000000004,0.5099719219721808,-0.03390302071998985,-0.010842857978014774,-0.009621127501618741,24.5,0.9910888957657454,-0.02280796196930875,-0.047386500941743445,0.1223810323912169,-3.2694010872300794,-5.068457701399927,14.223399168279919
0.2411339282989502,0.8847461563499999,-0.4193421606499999,9.8799645154,0.39046000000000003,-0.10654000000000001,0.28672000000000003,0.49600215886626947,-0.03054326190990077,-0.012675453692608819,-0.008399397025222712,24.5,0.9915462328267451,-0.013231780736577315,-0.04700547569854244,0.12021428118149333,-2.1602415351635105,-5.165615249160853,13.922971318900563
0.25520896911621094,0.8566304908,-0.4474578262,9.852447055499999,0.39046000000000003,-0.10654000000000001,0.28672000000000003,0.49600215886626947,-0.028710666195306725,-0.010842857978014774,-0.010537425358915765,24.5,0.9908590722792424,-0.021638434051178247,-0.04519874125949646,0.1252483566450623,-3.1182206796523846,-4.827194856995778,14.539860454862513
0.26975226402282715,0.8997012976000001,-0.44327038664999996,9.861420140249999,0.37898000000000004,-0.10318000000000001,0.29092,0.48878052252519233,-0.028710666195306725,-0.007941248096574201,-0.012370021073509813,24.5,0.9913438014682818,-0.013212572620348705,-0.048510399547311074,0.12128328966072795,-2.185135545617898,-5.334839764194539,14.051887102421432
0.2840900421142578,0.8961120637,-0.44207397535,9.852447055499999,0.38514000000000004,-0.10766,0.287,0.49223215579642904,-0.027794368338009703,-0.010842857978014774,-0.010842857978014774,24.5,0.9905522672464743,-0.02121571628894452,-0.04721126915198748,0.12699289468421093,-3.1088254881742143,-5.056724910860742,14.748716644571404
0.29986071586608887,0.8853443619999999,-0.44207397535,9.8632147572,0.38514000000000004,-0.10766,0.287,0.49223215579642904,-0.020311269170084013,-0.006414085001079162,-0.010537425358915765,24.5,0.9910851010618751,-0.01183463859267931,-0.04744325023138042,0.12393305366219387,-2.0266833315372716,-5.227306173750665,14.347955394524119
0.3142843246459961,0.8769694829,-0.4199403663,9.775278526649998,0.38794000000000006,-0.10906000000000002,0.30422000000000005,0.5049171571654107,-0.012370021073509813,-0.0054977871437821395,-0.011759155835311796,24.5,0.9903318462950655,-0.020180505154186016,-0.046474040395607166,0.1291346003007551,-2.990517537776822,-4.981693275336876,14.98848483587263
0.3286709785461426,0.8536394625499999,-0.43250268495,9.844670382049998,0.38794000000000006,-0.10906000000000002,0.30422000000000005,0.5049171571654107,-0.008246680715673207,-0.003970624048287101,-0.007635815477475193,24.5,0.9910076591507829,-0.011116246804831432,-0.045606535180890986,0.12530080809896643,-1.9249729567875244,-5.025960276222772,14.496717574686805
0.3436756134033203,0.8662017812,-0.4223331889,9.919446088299999,0.38934,-0.10822000000000001,0.30142,0.5041341293743165,-0.00473420559603462,-0.0022907446432425577,-0.006566801310628666,24.5,0.99031328514862,-0.019995002396175535,-0.04545568941204186,0.12966717949196227,-2.9564466941808143,-4.867132244805085,15.044906831682544
0.35774827003479004,0.8859425676499999,-0.43489550755,9.8727860476,0.38934,-0.10822000000000001,0.30142,0.5041341293743165,0.0019853120241435504,0.0016798794050445422,-0.008704829644321718,24.5,0.9909205414861142,-0.011513859109724175,-0.0479254174085371,0.1250882323621421,-2.0032982196229794,-5.284433826029688,14.48174177628155
0.37280726432800293,0.8650053699,-0.46241296745,9.930213789999998,0.38878,-0.10402000000000002,0.2926,0.49757894730384244,-0.007941248096574201,-0.002901609881440573,-0.009010262263420728,24.5,0.9907414420074071,-0.021017070330873612,-0.04501764471759884,0.12634512063340841,-3.0500367761857445,-4.812249396211265,14.663120221483409
0.3879580497741699,0.85244305125,-0.42771703974999997,9.9086783866,0.38514000000000004,-0.10598,0.29764,0.4981507297997264,-0.01466076571675237,-0.0006108652381980154,-0.009926560120717751,24.5,0.9913435065079582,-0.011918001405957784,-0.04560254642628881,0.12254150768793212,-2.002326201797903,-5.019493962730265,14.181122812024066
0.40350961685180664,0.87637127725,-0.43369909624999997,9.8931250397,0.38514000000000004,-0.10598,0.29764,0.4981507297997264,-0.010079276430267254,0.0003054326190990077,-0.005345070834232635,24.5,0.9905881363046055,-0.020638413554380015,-0.046159700998618006,0.12719466223959586,-3.02820260206122,-4.945051057743781,14.764635809491628
0.4187648296356201,0.8787640998499999,-0.43968115274999997,9.9972128228,0.38766,-0.10738,0.29806,0.5006500809947003,-0.009926560120717751,0.0012217304763960308,-0.007941248096574201,24.5,0.9912037914495736,-0.011534524595403892,-0.046555791070751265,0.12334730185993055,-1.9764913079993607,-5.131796990831927,14.27564280931706
0.4341576099395752,0.8967102693499999,-0.43190447930000003,9.869196813699999,0.38766,-0.10738,0.29806,0.5006500809947003,-0.016798794050445424,0.0009162978572970231,-0.009926560120717751,24.5,0.9904356748093901,-0.020232458695098522,-0.047231889346050715,0.1280506552455771,-3.0024701031906487,-5.070343881774738,14.866461283930052
0.44945359230041504,0.88833539025,-0.4271188341,9.83629550295,0.39074000000000003,-0.10710000000000001,0.3038,0.5064016169010522,-0.008552113334772215,0.0003054326190990077,-0.007330382858376185,24.5,0.9911236057213136,-0.011467841335903175,-0.047788053692166495,0.12352646971961594,-1.9877049193413407,-5.2726098413634235,14.300127997319107
0.4636850357055664,0.8656035755499999,-0.45523449964999996,9.87697348715,0.38570000000000004,-0.10710000000000001,0.30548000000000003,0.5035403959961902,-0.010842857978014774,-0.00045814892864851157,-0.006719517620178169,24.5,0.9905456804733882,-0.020312178183651882,-0.045872955727451675,0.12768062596093074,-2.9891166364824557,-4.915794189638372,14.818106044263448
0.47788047790527344,0.8721838377,-0.40917266459999996,9.87577707585,0.38570000000000004,-0.10710000000000001,0.30548000000000003,0.5035403959961902,-0.014049900478554353,0.0024434609527920616,-0.007941248096574201,24.5,0.9911016653577409,-0.011101889593216792,-0.04664375410143291,0.1241716440089992,-1.932713727323572,-5.146367246361535,14.36922108626976
0.4927074909210205,0.8823533337499999,-0.43609191885,9.8799645154,0.39242,-0.10486000000000001,0.30002000000000006,0.5049763127117944,-0.016493361431346415,0.0036651914291880926,-0.009010262263420728,24.5,0.9906679826807107,-0.02090685350477645,-0.0468355471780452,0.12627859315178497,-3.064336499252605,-5.020765141429775,14.662803176030431
0.5089292526245117,0.8775676885499999,-0.44207397535,9.8727860476,0.39242,-0.10486000000000001,0.30002000000000006,0.5049763127117944,-0.01069014166846527,0.0035124751196385882,-0.00916297857297023,24.5,0.991438365877598,-0.01251938048802514,-0.04713500266627877,0.12112606367666741,-2.0855712852703836,-5.188348227182247,14.025352599291269
0.5245449542999268,0.8781658942,-0.43010986235,9.873384253249998,0.38430000000000003,-0.10710000000000001,0.30296000000000006,0.5009407765395029,-0.015882496193148403,0.0009162978572970231,-0.008857545953871223,24.5,0.9906678179722482,-0.020701283893785945,-0.04606358055770004,0.12659730575907777,-3.0309424418575857,-4.935024169610613,14.69534271968534
0.5386929512023926,0.8811569224499999,-0.43728833014999996,9.87577707585,0.38626000000000005,-0.10402000000000002,0.30800000000000005,0.50485735411104,-0.016493361431346415,-0.002138028333693054,-0.010537425358915765,24.5,0.9913656639705056,-0.012256268448858918,-0.04732702642668822,0.12167192261830813,-2.061166200693262,-5.212755688530931,14.087861490033214
0.5539810657501221,0.8871389789499998,-0.44626141489999993,9.8500542329,0.38626000000000005,-0.10402000000000002,0.30800000000000005,0.50485735411104,-0.016798794050445424,0.0018325957145940463,-0.009926560120717751,24.5,0.9907758564898481,-0.021548689726977332,-0.04691688864419174,0.12529030979212544,-3.1337107923619185,-5.023743296393167,14.55187343755539
0.5682482719421387,1.0671988796,-0.43609191885,9.917651471349998,0.38458000000000003,-0.10822000000000001,0.29008000000000006,0.4937203167786394,-0.015118914645400881,0.0019853120241435504,-0.008552113334772215,24.5,0.9905917979755943,-0.015576530701783227,-0.05482197751284348,0.12441789363414338,-2.564713552198251,-6.011979899736619,14.452377419927402
0.5830404758453369,0.8889335959,-0.430708068,9.9158568544,0.38458000000000003,-0.10822000000000001,0.29008000000000006,0.4937203167786394,-0.013591751549905842,0.001069014166846527,-0.007941248096574201,24.5,0.9904950871168914,-0.018927627140629465,-0.04617993456390375,0.12817426017652964,-2.838434577390545,-4.969758616738824,14.869887607143996
0.5975024700164795,0.8901300072,-0.42891345105,9.860223728949999,0.39354,-0.10962000000000001,0.29218,0.5022543463226575,-0.014508049407202865,0.0018325957145940463,-0.010384709049366262,24.5,0.9909676258698719,-0.010106784667896194,-0.0488114485607066,0.12449281051896918,-1.8525905506532416,-5.406697454472343,14.408312108278478
0.6116313934326172,0.8895318015499999,-0.4295116567,9.938588669099998,0.39354,-0.10962000000000001,0.29218,0.5022543463226575,-0.008857545953871223,-0.0006108652381980154,-0.010384709049366262,24.5,0.9903579644662257,-0.018652233084751547,-0.046700191862019756,0.12908248719062013,-2.8195514334866414,-5.030409726100046,14.975927525094242
0.626774787902832,0.9014959145499999,-0.4211367776,9.879366309749999,0.3890600000000001,-0.10766,0.30394000000000004,0.505309689992187,-0.01114829059711378,-0.00045814892864851157,-0.010995574287564279,24.5,0.990959568259777,-0.010066468495948565,-0.048750118191539384,0.1245842135373794,-1.8475940060365301,-5.400128495228877,14.418490427010301
0.6408500671386719,0.8817551281,-0.41694933804999995,9.8572327007,0.38850000000000007,-0.10794000000000001,0.30590000000000006,0.5061206413494712,-0.01710422666954443,-0.00045814892864851157,-0.010079276430267254,24.5,0.9903778317039881,-0.01871559768164204,-0.046486517173324596,0.12899798678204277,-2.823084518580691,-5.005414483437985,14.965557214763258
0.65720534324646,0.8548358738499999,-0.4271188341,9.8249295956,0.38850000000000007,-0.10794000000000001,0.30590000000000006,0.5061206413494712,-0.01466076571675237,-0.0009162978572970231,-0.00946841119206924,24.5,0.9911360783332143,-0.010091078905121552,-0.04567198303370893,0.1243443377020272,-1.8041743926239113,-5.049983315830692,14.381088742263781
0.6719129085540771,0.9008977089,-0.42412780585,9.85902731765,0.3899,-0.10318000000000001,0.30534000000000006,0.5058662253995616,-0.015882496193148403,-0.0036651914291880926,-0.010079276430267254,24.5,0.9906801721389189,-0.01948775151212024,-0.04893366199421682,0.12561258215497106,-2.930393318651254,-5.282094195835074,14.587635799984442
0.6894359588623047,0.89551385805,-0.42592242280000003,9.863812962849998,0.3899,-0.10318000000000001,0.30534000000000006,0.5058662253995616,-0.012217304763960308,-0.0012217304763960308,-0.00946841119206924,24.5,0.9914979633704412,-0.01117785845725581,-0.04787152687737717,0.12047888207899919,-1.9395425014050145,-5.292235565686434,13.945964009212647
0.7035531997680664,0.8967102693499999,-0.42293139455,9.898508890549998,0.38234,-0.11130000000000001,0.31808000000000003,0.5096532664469051,-0.010537425358915765,-0.0018325957145940463,-0.007635815477475193,24.5,0.9906959713480877,-0.01906169182143034,-0.04689260135638202,0.12632983890437394,-2.855096652617684,-5.054109649372292,14.659882647133964
0.7183663845062256,0.9038887371499998,-0.42173498325,9.859625523299998,0.39382000000000006,-0.10906000000000002,0.29582,0.5044776986151123,-0.011606439525762293,-0.0012217304763960308,-0.009621127501618741,24.5,0.9910525368484978,-0.009805655735208679,-0.04932801654178255,0.12363440098052413,-1.8210462294296539,-5.471388754884006,14.30891535866005
0.7325527667999268,0.8817551281,-0.40857445894999994,9.8680004024,0.39382000000000006,-0.10906000000000002,0.29582,0.5044776986151123,-0.013286318930806834,-0.006261368691529657,-0.010995574287564279,24.5,0.9904655997280464,-0.018092989469693514,-0.046580733934581196,0.12837746964918284,-2.7504163465026266,-5.027148738258939,14.891002622330813
0.74662184715271,0.90029950325,-0.5802594805,9.8739824589,0.3831800000000001,-0.10962000000000001,0.2968,0.49692423647876144,-0.010842857978014774,-0.006108652381980154,-0.009926560120717751,24.5,0.989923859059799,-0.027338399530274497,-0.05016356606593711,0.1295645854962953,-3.8653574781751074,-5.292028071435984,15.092062381867873
0.7620410919189453,0.8985048862999999,-0.41754754369999997,9.87697348715,0.3831800000000001,-0.10962000000000001,0.2968,0.49692423647876144,-0.009773843811168246,-0.0038179077387375964,-0.007483099167925688,24.5,0.9905776053017581,-0.017987576189892544,-0.04893163041979434,0.1266418197986262,-2.7647949872383766,-5.300840591613227,14.69909072118587
0.7761754989624023,0.8793623054999999,-0.44027935839999993,9.834500885999999,0.38878,-0.10374000000000001,0.30422000000000005,0.5044419534495521,-0.011759155835311796,-0.005345070834232635,-0.0119118721448613,24.5,0.9915504875127522,-0.010682579748781573,-0.04645676798189318,0.12064527306036928,-1.8638676504329792,-5.1377687223316615,13.958170225327912
0.7936592102050781,0.8895318015499999,-0.45044885445,9.865607579799999,0.38514000000000004,-0.1029,0.30590000000000006,0.502489840295304,-0.01069014166846527,-0.003970624048287101,-0.009315694882519735,24.5,0.9909494108042687,-0.01998489126475526,-0.047027247588246716,0.12413020314203302,-2.951113157020117,-5.062466571199327,14.41029793908669
0.8076517581939697,0.8799605111499998,-0.42652062845,9.7950193131,0.38514000000000004,-0.1029,0.30590000000000006,0.502489840295304,-0.013591751549905842,-0.007330382858376185,-0.008704829644321718,24.5,0.9916202153306611,-0.011230713248947661,-0.047535303458378364,0.11959771967982032,-1.936131102690027,-5.254947158847893,13.843126749944247
0.8222689628601074,0.8721838377,-0.43848474145,9.85304526115,0.39102000000000003,-0.10934,0.29638000000000003,0.5026857670553245,-0.008857545953871223,-0.004581489286485115,-0.010842857978014774,24.5,0.9908874639787729,-0.019390051098171487,-0.0462459514402571,0.1250094861340992,-2.8762226003768725,-4.979608138395809,14.505887401393336
0.8367254734039307,0.8913264184999999,-0.43250268495,9.87697348715,0.39102000000000003,-0.10934,0.29638000000000003,0.5026857670553245,-0.006566801310628666,-0.00473420559603462,-0.011301006906663285,24.5,0.9908585940316692,-0.009932880337800846,-0.04943445103302585,0.1251272135582114,-1.8453846458382248,-5.478910190337267,14.48291891244007
0.8507847785949707,0.88833539025,-0.4295116567,9.83509909165,0.38178,-0.10598,0.30156,0.49792184366625253,-0.013744467859455347,-0.006414085001079162,-0.01069014166846527,24.5,0.9903250583589022,-0.018749755572965546,-0.047144627431816584,0.1291592410813353,-2.8378425879721934,-5.079251981547607,14.987164469577959
0.86641526222229,0.8691928094499999,-0.44566320924999997,9.712466933399998,0.38178,-0.10598,0.30156,0.49792184366625253,-0.013439035240356337,-0.006108652381980154,-0.010842857978014774,24.5,0.9911250546746115,-0.010633536233483915,-0.04770639655385388,0.12362100804986909,-1.8918590858498372,-5.275048393122372,14.306496319099711
0.8806312084197998,0.8805587167999999,-0.4331008906,9.799206752649999,0.38766,-0.10934,0.30324,0.5041725982240606,-0.011301006906663285,-0.006566801310628666,-0.007177666548826681,24.5,0.9904156007589514,-0.019189505451855455,-0.046779327485107304,0.1285316893759657,-2.879183840175456,-5.032973377656998,14.915090887474353
0.8983762264251709,0.8691928094499999,-0.40917266459999996,9.972088185499999,0.39046000000000003,-0.10542000000000001,0.30366000000000004,0.505748735638558,-0.011759155835311796,-0.006414085001079162,-0.01069014166846527,24.5,0.9912047568524083,-0.010713448046997259,-0.04613034320147929,0.1235732311636149,-1.877853023739428,-5.094658595028385,14.29631799396419
0.9126358032226562,0.8943174467499999,-0.41874395499999995,9.865607579799999,0.39046000000000003,-0.10542000000000001,0.30366000000000004,0.505748735638558,-0.013286318930806834,-0.005192354524683131,-0.010231992739816757,24.5,0.9905530729442807,-0.019915323813174977,-0.047614142563168566,0.12704677479587156,-2.966924403003351,-5.12151520566633,14.750248022848382
0.9287023544311523,0.8829515394,-0.4366901245,9.855438083749998,0.38150000000000006,-0.10346000000000001,0.29652000000000006,0.49413594485728324,-0.013744467859455347,-0.00946841119206924,-0.009315694882519735,24.5,0.9913181078737351,-0.011402568354735883,-0.04739482632523943,0.12211519509935516,-1.9670865360695355,-5.231601427842593,14.135043391050077
0.9430201053619385,0.8530412569,-0.4558327053,9.851250644199999,0.38150000000000006,-0.10346000000000001,0.29652000000000006,0.49413594485728324,-0.012370021073509813,-0.0033597588100890844,-0.013286318930806834,24.5,0.9908214805275924,-0.020466816598061675,-0.04531036146001443,0.12570152858185124,-2.9885384618699473,-4.855527264471302,14.587255243702716
0.9570455551147461,0.88354974505,-0.44985064880000003,9.8668039911,0.38458000000000003,-0.11158000000000001,0.30044000000000004,0.5006156873291129,-0.009926560120717751,-0.00595593607243065,-0.008704829644321718,24.5,0.9899151771891772,-0.01463274487425134,-0.050461300480769966,0.1315579032280237,-2.4325799692331294,-5.512027758448056,15.257406194600014
0.9720830917358398,0.8769694829,-0.43728833014999996,9.896116067949999,0.38542000000000004,-0.10150000000000002,0.30646,0.5027609352366192,-0.015577063574049392,-0.0024434609527920616,-0.013439035240356337,24.5,0.9911297486986187,-0.010011984931179463,-0.04633580209019816,0.12415544630425494,-1.8038532373063934,-5.126990713866461,14.360878502685175
0.9862661361694336,0.8697910151,-0.43010986235,9.865607579799999,0.38542000000000004,-0.10150000000000002,0.30646,0.5027609352366192,-0.012522737383059314,0.00015271630954950385,-0.010842857978014774,24.5,0.9908551806564478,-0.019997201795829544,-0.046197152032007534,0.12518764328298054,-2.9456179286181565,-4.96473452098988,14.529267797932357
1.0041968822479248,0.8697910151,-0.39661034595,9.8620183459,0.3871,-0.10430000000000002,0.30128000000000005,0.5014923114066656,-0.013133602621257331,-0.0013744467859455349,-0.009773843811168246,24.5,0.9914692823455419,-0.010911378621748848,-0.0464181309330693,0.12130523938589526,-1.8928450813677922,-5.128922914550784,14.035607857459354
1.0183913707733154,0.8757730716000001,-0.44327038664999996,9.8751788702,0.3871,-0.10430000000000002,0.30128000000000005,0.5014923114066656,-0.010384709049366262,-0.0007635815477475193,-0.011301006906663285,24.5,0.9908600061445189,-0.020084361029998152,-0.04621890968399521,0.12512745123642308,-2.9555754506207896,-4.966123929210856,14.52281447389418
1.0325698852539062,0.8793623054999999,-0.42771703974999997,9.93320481825,0.38682000000000005,-0.09898,0.2975,0.4979287125683756,-0.010079276430267254,-0.0009162978572970231,-0.009010262263420728,24.5,0.9916714783220338,-0.012137270995177968,-0.04684595433807708,0.11935586411038392,-2.0286228970031117,-5.164428876449468,13.817514853620189
1.0470600128173828,0.849452023,-0.43848474145,9.87458066455,0.39270000000000005,-0.11074,0.30576000000000003,0.50986842930309,-0.014813482026301873,-0.0013744467859455349,-0.008857545953871223,24.5,0.9909319328633822,-0.020113557200779265,-0.04510414920233895,0.12495985344543745,-2.9415793136587554,-4.839425166865129,14.498836945055109
1.0612261295318604,0.8811569224499999,-0.43788653580000003,9.86500937415,0.39270000000000005,-0.11074,0.30576000000000003,0.50986842930309,-0.008552113334772215,0.0022907446432425577,-0.007788531787024696,24.5,0.9908073200414106,-0.011283145610651467,-0.04967673883828212,0.12532265076944216,-2.0040591036136406,-5.486550097555044,14.513632358832817
1.0789947509765625,0.8530412569,-0.47377887479999997,9.8261260069,0.3960600000000001,-0.10542000000000001,0.3178,0.5186267829566846,-0.012980886311707827,0.002901609881440573,-0.007941248096574201,24.5,0.9908154578156131,-0.020189640920908147,-0.04504214352055024,0.12589008007065458,-2.953875384951862,-4.82850263369705,14.606634321975237
1.093207597732544,0.89551385805,-0.42652062845,9.8859465719,0.3960600000000001,-0.10542000000000001,0.3178,0.5186267829566846,-0.01114829059711378,0.0013744467859455349,-0.009010262263420728,24.5,0.9914286993366629,-0.012004810993753586,-0.04774053407653235,0.12102008118781186,-2.034929363835,-5.264695515505508,14.012480929302047
1.1111271381378174,0.8691928094499999,-0.44386859230000003,9.88415195495,0.38850000000000007,-0.10934,0.29190000000000005,0.4980894453810481,-0.013744467859455347,0.0019853120241435504,-0.008552113334772215,24.5,0.990698475600762,-0.02009335591100989,-0.04600827391889925,0.1264753976928454,-2.9602094705130093,-4.9380182756302125,14.678049734191843
1.1274070739746094,0.8985048862999999,-0.41814574934999993,9.878169898449999,0.38458000000000003,-0.10850000000000001,0.30366000000000004,0.5018798880210285,-0.016035212502697904,0.0038179077387375964,-0.009010262263420728,24.5,0.9908873641747027,-0.010714674220469454,-0.04891900745652007,0.12503742633599124,-1.926485683319357,-5.409131648691355,14.474990524068833
1.146723985671997,0.8751748659499998,-0.4295116567,9.84108114815,0.38458000000000003,-0.10850000000000001,0.30366000000000004,0.5018798880210285,-0.014049900478554353,0.005345070834232635,-0.009315694882519735,24.5,0.9902842050206315,-0.01918159708795301,-0.04644029326996011,0.12966325146629276,-2.8788409979886738,-4.991265802283124,15.044717803353368
1.160776138305664,0.8757730716000001,-0.41635113239999993,9.862616551549998,0.38542000000000004,-0.10626000000000001,0.30044000000000004,0.5001039467950639,-0.014966198335851376,0.0,-0.010842857978014774,24.5,0.9909978941886378,-0.010578242026272808,-0.0470398426609486,0.1248940659589246,-1.8825681920877835,-5.197576188231498,14.4515268895692
1.1761839389801025,0.8787640998499999,-0.4366901245,9.856634495049999,0.39242,-0.10402000000000002,0.30674,0.5088251609344805,-0.012064588454410803,0.0013744467859455349,-0.012064588454410803,24.5,0.9907510355298434,-0.020574620927672423,-0.046640022346074554,0.12575284842015688,-3.020876955898245,-5.004999407383649,14.59943482986527
1.1908783912658691,0.8823533337499999,-0.4414757697,9.8608219346,0.39242,-0.10402000000000002,0.30674,0.5088251609344805,-0.02168571595602955,0.0033597588100890844,-0.008857545953871223,24.5,0.9915094983127622,-0.012371771125738241,-0.04744660643605054,0.12043535017796624,-2.0695233374992603,-5.227325368104802,13.945680641241442
1.2049503326416016,0.8608179303499999,-0.4079762533,9.8500542329,0.38206000000000007,-0.11130000000000001,0.3143,0.507091730952103,-0.012064588454410803,0.0013744467859455349,-0.00595593607243065,24.5,0.9906994236125114,-0.019775537498488312,-0.045548096222046655,0.1266844548515345,-2.9181309897855594,-4.8897361779054656,14.698781003268415
1.2204818725585938,0.8943174467499999,-0.41276189849999995,9.88295554365,0.38206000000000007,-0.11130000000000001,0.3143,0.507091730952103,-0.01664607774089592,-0.002901609881440573,-0.006719517620178169,24.5,0.9901597092732568,-0.011587888308819422,-0.04961349225192291,0.13033791606056358,-2.0656491908860763,-5.464550935090879,15.09641959876797
1.234679937362671,0.8847461563499999,-0.4474578262,9.91525864875,0.38598000000000005,-0.10010000000000001,0.30828000000000005,0.5040209606752482,-0.010384709049366262,-0.0013744467859455349,-0.013286318930806834,24.5,0.9914364558225318,-0.013005579895138474,-0.04562577861524301,0.12166715778467471,-2.1222702161994675,-5.008608494733055,14.085323247821409
1.250819206237793,0.8997012976000001,-0.42532421714999996,9.843473970749999,0.38598000000000005,-0.10010000000000001,0.30828000000000005,0.5040209606752482,-0.011606439525762293,0.038331793696925465,-0.00595593607243065,24.5,0.9912418275351522,-0.019851967843899105,-0.052490387423247055,0.11954203422082894,-2.9901176608878535,-5.6997291491088165,13.902007275957486
1.2652149200439453,0.8973084749999999,-0.41096728154999995,9.86500937415,0.38626000000000005,-0.11158000000000001,0.30506,0.5046865240919357,-0.015118914645400881,-0.0019853120241435504,-0.009773843811168246,24.5,0.9907021504896026,-0.020282541109323406,-0.045563149552118175,0.126577513580875,-2.9756165259884977,-4.884328093986134,14.688885941613174
1.2823631763458252,0.8799605111499998,-0.4271188341,9.860223728949999,0.38514000000000004,-0.11242000000000002,0.29428000000000004,0.4975658694082624,-0.011301006906663285,-0.0015271630954950385,-0.008857545953871223,24.5,0.9899274704825687,-0.012989545983446843,-0.04852428181695761,0.13236415282573763,-2.2196029456727016,-5.315061813943196,15.334839499161932
1.2976155281066895,0.8817551281,-0.4199403663,9.80399239785,0.38514000000000004,-0.11242000000000002,0.29428000000000004,0.4975658694082624,-0.013591751549905842,-0.0036651914291880926,-0.008093964406123704,24.5,0.9892555307529819,-0.02109743629169747,-0.045611708604546684,0.1372878912895372,-3.121868614381115,-4.844422907617162,15.934061027403866
1.3116021156311035,0.8769694829,-0.43130627364999996,9.851250644199999,0.38682000000000005,-0.10794000000000001,0.31276000000000004,0.5090182448596514,-0.011606439525762293,-0.0007635815477475193,-0.008704829644321718,24.5,0.9900779858005038,-0.013046315294280962,-0.04694017556382493,0.13180286646540315,-2.198487100983206,-5.135406042841006,15.264288952446845
1.3282556533813477,0.9032905314999999,-0.43190447930000003,9.852447055499999,0.38682000000000005,-0.10794000000000001,0.31276000000000004,0.5090182448596514,-0.009621127501618741,-0.0024434609527920616,-0.009315694882519735,24.5,0.9902463105281873,-0.020064352656629484,-0.0526552928388657,0.1274248263637678,-3.0621877265387507,-5.691378877484145,14.81729430110084
1.3423879146575928,0.8871389789499998,-0.43130627364999996,9.844670382049998,0.38850000000000007,-0.10878000000000002,0.31192000000000003,0.5099602188406465,-0.013133602621257331,-0.0022907446432425577,-0.010079276430267254,24.5,0.9909479533192529,-0.013171781725896876,-0.045913694604082844,0.1254615105375036,-2.1646572609862704,-5.0307893118754174,14.526481349951508
1.3583478927612305,0.8751748659499998,-0.4271188341,9.8991070962,0.38626000000000005,-0.11354,0.30072000000000004,0.5025143158159776,-0.010079276430267254,-0.004581489286485115,-0.011301006906663285,24.5,0.9900170891124374,-0.020706920305651355,-0.045708590519361984,0.13171222976445682,-3.0515290396151826,-4.8788921448089795,15.28633185831073
1.3727145195007324,0.8673981924999999,-0.43489550755,9.8668039911,0.38626000000000005,-0.11354,0.30072000000000004,0.5025143158159776,-0.00595593607243065,-0.0027488935718910697,-0.011606439525762293,24.5,0.9903070909878094,-0.010921212617650168,-0.04696323817063831,0.1302576174922239,-1.948653829406927,-5.173439679434299,15.074532775885924
1.3890438079833984,0.9188438783999999,-0.43489550755,9.868598608049998,0.38654,-0.10626000000000001,0.30562,0.5040912056364404,-0.012217304763960308,-0.004581489286485115,-0.009315694882519735,24.5,0.9900006624837339,-0.02018295292905036,-0.05084633106500479,0.13002302607638294,-3.0626851374106145,-5.475914359297036,15.11088342593695
1.4041259288787842,0.8967102693499999,-0.4193421606499999,9.8751788702,0.38654,-0.11018,0.30282000000000003,0.503242244252209,-0.009773843811168246,-0.0007635815477475193,-0.00916297857297023,24.5,0.9906513372656961,-0.011561313708969609,-0.04664741539748332,0.12767256023024476,-2.003345506083652,-5.133147456742959,14.777111993018691
1.4184048175811768,0.9044869427999999,-0.4390829471,9.877571692799998,0.39158000000000004,-0.11018,0.30282000000000003,0.507123733619321,-0.012675453692608819,-0.005039638215133627,-0.00946841119206924,24.5,0.98992817375746,-0.020575384914172972,-0.048138508259863676,0.1315353502271107,-3.0735141360223803,-5.157540673259462,15.275985128336583
1.4329969882965088,0.8895318015499999,-0.43848474145,9.8273224182,0.38934,-0.10178000000000001,0.30436,0.5045590288558912,-0.012522737383059314,-0.007330382858376185,-0.009010262263420728,24.5,0.99083384268083,-0.01287325818036762,-0.04834517779093836,0.12548035386674886,-2.166617767979184,-5.311669995850394,14.535679021153122
1.4486684799194336,0.8811569224499999,-0.4414757697,9.851848849849999,0.38934,-0.10178000000000001,0.30436,0.5045590288558912,-0.013591751549905842,-0.004123340357836604,-0.007177666548826681,24.5,0.9917115464746661,-0.019221068314252656,-0.04458509583766301,0.11895767461930136,-2.8030673449984995,-4.810365610607923,13.797872868204102
1.4629707336425781,0.8751748659499998,-0.42053857194999994,9.832706269049998,0.38486000000000004,-0.10458,0.29442,0.49571900548597086,-0.013439035240356337,-0.00473420559603462,-0.009315694882519735,24.5,0.9910165357055272,-0.012622984079310066,-0.050495909817423884,0.12319516761163729,-2.1570235005431875,-5.564968348625018,14.277238359252266
1.4773778915405273,0.8721838377,-0.4223331889,9.87218784195,0.38486000000000004,-0.10458,0.29442,0.49571900548597086,-0.008093964406123704,-0.005345070834232635,-0.010995574287564279,24.5,0.9907315034338315,-0.019671746597940677,-0.04445972697330974,0.1268362848990185,-2.8907386121678496,-4.7670707748570935,14.711321633875727
1.4913923740386963,0.8943174467499999,-0.41874395499999995,9.80279598655,0.38878,-0.10346000000000001,0.29358000000000006,0.49803923178801895,-0.014508049407202865,-0.004123340357836604,-0.008093964406123704,24.5,0.9913185775082608,-0.011881402152632177,-0.047985080724533336,0.12183489729033325,-2.0286914291251787,-5.292593130934292,14.107016487761696
1.5067174434661865,0.9062815597499999,-0.4193421606499999,9.88175913235,0.38850000000000007,-0.10262,0.29386,0.49781202677315867,-0.009926560120717751,-0.0027488935718910697,-0.007941248096574201,24.5,0.9907945089352466,-0.021357503887002128,-0.047606300203034954,0.12491492413822622,-3.1202243979882525,-5.106102286559391,14.51052597893443
1.5215532779693604,0.8769694829,-0.4283152454,9.85304526115,0.38850000000000007,-0.10262,0.29386,0.49781202677315867,-0.008399397025222712,-0.006414085001079162,-0.008552113334772215,24.5,0.991559256266992,-0.01277420275895591,-0.04718865556246238,0.12008451957404921,-2.109943326244784,-5.193104658363608,13.906249878265617
1.5400526523590088,0.8757730716000001,-0.42053857194999994,9.8799645154,0.38934,-0.10598,0.29666000000000003,0.5008238728335542,-0.005039638215133627,-0.0035124751196385882,-0.00946841119206924,24.5,0.9908151808892592,-0.020841261570130044,-0.04568738138337485,0.12555310556844032,-3.036098087478419,-4.893398852153539,14.57347539059512
1.5543713569641113,0.8787640998499999,-0.4414757697,9.925428144799998,0.38934,-0.10598,0.29666000000000003,0.5008238728335542,-0.009621127501618741,-0.005039638215133627,-0.008399397025222712,24.5,0.9914188317658509,-0.01199805372700901,-0.04715106475125333,0.12133228679796015,-2.027405693423218,-5.197055736382428,14.04662739380359
1.5703043937683105,0.9080761767,-0.4271188341,9.92004429395,0.39130000000000004,-0.10346000000000001,0.29988000000000004,0.5037337352212973,-0.012522737383059314,-0.005803219762881146,-0.010079276430267254,24.5,0.9908150661189887,-0.021375272325474644,-0.0482188246269844,0.12451324201155452,-3.129235254123731,-5.176773768582079,14.46683571051379
1.5844395160675049,0.8781658942,-0.4450650036,9.851848849849999,0.38458000000000003,-0.11074,0.29988000000000004,0.500093129726854,-0.009621127501618741,-0.0036651914291880926,-0.010079276430267254,24.5,0.9905859025235354,-0.013417342354141059,-0.04420788906960181,0.12886119349825365,-2.1841007791704987,-4.8257380932632215,14.91554006677223
1.6005122661590576,0.8901300072,-0.4211367776,9.913464031799998,0.38458000000000003,-0.11074,0.29988000000000004,0.500093129726854,-0.013591751549905842,-0.003970624048287101,-0.010384709049366262,24.5,0.9895987479365833,-0.02063432614315552,-0.04860761759736746,0.1338127130674538,-3.099541205523321,-5.202832018142868,15.54241977228256
1.614762544631958,0.8685946038,-0.41694933804999995,9.870393224999999,0.3896200000000001,-0.10430000000000002,0.30310000000000004,0.5045313116150475,-0.012828170002158324,-0.0013744467859455349,-0.009010262263420728,24.5,0.9905229091849036,-0.012689048027246673,-0.04766466024176282,0.12818515750302226,-2.1498771431050754,-5.231079881978399,14.84573565580082
1.629410982131958,0.8769694829,-0.45104706009999995,9.88175913235,0.3896200000000001,-0.10430000000000002,0.30310000000000004,0.5045313116150475,-0.01069014166846527,0.003207042500539581,-0.008552113334772215,24.5,0.9911541136807596,-0.02085519495211902,-0.04543397355798651,0.12294038321051864,-3.021071386277266,-4.872358907046459,14.269995460982543
1.6454463005065918,0.8781658942,-0.42412780585,9.869795019349999,0.38178,-0.10766,0.30338000000000004,0.49938569102448266,-0.01145372321621279,-0.0018325957145940463,-0.01145372321621279,24.5,0.9909672174299591,-0.011413443516880561,-0.047935020838278185,0.12472345835264982,-1.990037037659777,-5.287711077526629,14.438994623148655
1.6609008312225342,0.8542376682,-0.4037888137499999,9.8404829425,0.39438000000000006,-0.10570000000000002,0.30044000000000004,0.5069243217680526,-0.013591751549905842,0.00015271630954950385,-0.011759155835311796,24.5,0.990784407706103,-0.01981351595409447,-0.042917004287582716,0.12693231572370842,-2.8842433238485037,-4.58931564464684,14.716725384229626
1.6772799491882324,0.8590233134,-0.43130627364999996,9.8560362894,0.39438000000000006,-0.10570000000000002,0.30044000000000004,0.5069243217680526,-0.014508049407202865,-0.00045814892864851157,-0.010231992739816757,24.5,0.9914005083791765,-0.012100403030830702,-0.046361510770469586,0.12177529532331871,-2.0301033839336475,-5.10484887771284,14.095815242746825
1.6923551559448242,0.8662017812,-0.43010986235,9.868598608049998,0.39494000000000007,-0.10374000000000001,0.30562,0.51004232726314,-0.015424347264499889,-0.001069014166846527,-0.010995574287564279,24.5,0.9910437420764172,-0.021941614681895236,-0.04559333191679084,0.12358039861178761,-3.1504332299587143,-4.872969440544526,14.349954777464312
1.7071449756622314,0.8823533337499999,-0.44327038664999996,9.848259615949999,0.39494000000000007,-0.10374000000000001,0.30562,0.51004232726314,-0.009773843811168246,-0.0018325957145940463,-0.007788531787024696,24.5,0.99171298210484,-0.013516773402048219,-0.04728012830716712,0.11868971071150462,-2.1886465060960143,-5.196286285782635,13.748894525957818
1.7221901416778564,0.8805587167999999,-0.43190447930000003,9.86620578545,0.39270000000000005,-0.10542000000000001,0.31136,0.5121247074687961,-0.011301006906663285,0.005039638215133627,-0.010079276430267254,24.5,0.9910003153399849,-0.021910198689358347,-0.045981679629881804,0.1237901584450803,-3.153583634434623,-4.9169219692269905,14.375800573939703
1.7364976406097412,0.8979066806499999,-0.4139583098,9.856634495049999,0.3831800000000001,-0.10682000000000001,0.30184000000000005,0.49934438056315417,-0.010384709049366262,-0.0003054326190990077,-0.009621127501618741,24.5,0.9912458437894844,-0.012324195905140172,-0.04820313718049649,0.12229574371711788,-2.0848130098243796,-5.3102044254186564,14.163430052513014
1.7508149147033691,0.873380249,-0.42652062845,9.8333044747,0.3831800000000001,-0.10682000000000001,0.30184000000000005,0.49934438056315417,-0.014202616788103858,0.0054977871437821395,-0.013133602621257331,24.5,0.9905636933505689,-0.020472576108471793,-0.04595156433140029,0.12748684943420605,-3.007620620176591,-4.922945897844357,14.796773874966412
1.7648966312408447,0.8757730716000001,-0.4247260115,9.8273224182,0.38094000000000006,-0.10598,0.30100000000000005,0.4969386722725452,-0.013744467859455347,0.006108652381980154,-0.00946841119206924,24.5,0.9911031122248144,-0.011368581794501814,-0.047335184132839214,0.12387395460458546,-1.971641929697134,-5.221803725900665,14.338362898798893
1.780059576034546,0.8608179303499999,-0.42053857194999994,9.88774118885,0.38094000000000006,-0.10598,0.30100000000000005,0.4969386722725452,-0.016493361431346415,-0.00015271630954950385,-0.010231992739816757,24.5,0.9904762598702953,-0.0198447408294327,-0.04507478302976784,0.1285738263784013,-2.9281558427211225,-4.8293319781672315,14.915928678060009
1.7942345142364502,0.8919246241499998,-0.44685962055,9.865607579799999,0.39046000000000003,-0.10486000000000001,0.30800000000000005,0.5082505594684575,-0.014508049407202865,-0.0012217304763960308,-0.010995574287564279,24.5,0.9911748681874863,-0.012240219245201547,-0.04796627067659191,0.12297070620163324,-2.075427866490934,-5.283023090977282,14.240355616629133
1.8083055019378662,0.9074779710499999,-0.44446679795,9.843473970749999,0.39046000000000003,-0.10486000000000001,0.30800000000000005,0.5082505594684575,-0.014355333097653362,0.0013744467859455349,-0.01069014166846527,24.5,0.9906279642471837,-0.021782844390641393,-0.04830598467449266,0.12588993600110113,-3.1842131773069426,-5.176380826338029,14.628735769483548
1.8231775760650635,0.85244305125,-0.430708068,9.89013401145,0.39186,-0.10794000000000001,0.29848,0.5042773181494483,-0.015577063574049392,0.0003054326190990077,-0.007635815477475193,24.5,0.9913281681444868,-0.013016755538474782,-0.04518775306879407,0.12270735141441708,-2.122490648044401,-4.956378837376579,14.204317601366787
1.8372719287872314,0.8871389789499998,-0.42053857194999994,9.844670382049998,0.3901800000000001,-0.10682000000000001,0.29792,0.5024015039786407,-0.020769418098732523,0.00015271630954950385,-0.009315694882519735,24.5,0.9904489779908627,-0.0211859154812661,-0.04796032192745624,0.12752170992694228,-3.1194617990338642,-5.140663422949393,14.813172557021081
1.8524343967437744,0.8979066806499999,-0.42771703974999997,9.87218784195,0.3901800000000001,-0.10682000000000001,0.29792,0.5024015039786407,-0.013439035240356337,0.0006108652381980154,-0.0068722339297276735,24.5,0.991130502814979,-0.012277445671603295,-0.048015025452591356,0.12330510146905779,-2.0821680381106797,-5.2873398903937305,14.279446120146229
1.8668639659881592,0.8829515394,-0.43968115274999997,9.838688325549999,0.38794000000000006,-0.10402000000000002,0.3108,0.5078525809720771,-0.009315694882519735,-0.0012217304763960308,-0.010842857978014774,24.5,0.9907386739735359,-0.02178160875084987,-0.0462041363218467,0.12580786620930065,-3.1522575374874116,-4.937663486948997,14.60976582618526
1.881606101989746,0.8685946038,-0.43489550755,9.906285564,0.38794000000000006,-0.10402000000000002,0.3108,0.5078525809720771,-0.012980886311707827,-0.0027488935718910697,-0.010231992739816757,24.5,0.991459027959446,-0.013101787167239998,-0.046496235662087375,0.12114222682446647,-2.1429925981962605,-5.107453307962249,14.02799223109846
1.8960111141204834,0.8901300072,-0.4073780476499999,9.856634495049999,0.39242,-0.10542000000000001,0.29974,0.504926628729363,-0.012828170002158324,0.0024434609527920616,-0.0070249502392771765,24.5,0.9906147286816646,-0.02140185386337465,-0.04741325254902626,0.12639779844951846,-3.1300334787183997,-5.078828321602645,14.681616376092387
1.9105684757232666,0.8967102693499999,-0.4211367776,9.907481975299998,0.39242,-0.10542000000000001,0.29974,0.504926628729363,-0.013897184169004852,-0.0018325957145940463,-0.010079276430267254,24.5,0.9913108110313271,-0.01262814544688128,-0.0477639800117032,0.12190983589697094,-2.1111146900258215,-5.256748602776488,14.118807767832303
1.9255599975585938,0.8739784546499999,-0.4414757697,9.846464998999998,0.39466,-0.10570000000000002,0.3094,0.5125010883890883,-0.010231992739816757,-0.004123340357836604,-0.009010262263420728,24.5,0.99084234854002,-0.021810040424428054,-0.04565076735780991,0.1251869398780296,-3.1441886818665776,-4.8762987402335645,14.535555304536361
1.9398043155670166,0.8853443619999999,-0.42053857194999994,9.821340361699999,0.38542000000000004,-0.11242000000000002,0.30632000000000004,0.5049938367940742,-0.009315694882519735,-0.003207042500539581,-0.010079276430267254,24.5,0.990451087765382,-0.012870082219689936,-0.04838495136042016,0.12845193735354737,-2.182814835497928,-5.309718537885705,14.8801557151851
1.95493745803833,0.8871389789499998,-0.41515472109999996,9.858429112,0.38542000000000004,-0.11242000000000002,0.30632000000000004,0.5049938367940742,-0.01069014166846527,-0.005039638215133627,-0.007788531787024696,24.5,0.9896470851688932,-0.02049821813942544,-0.04623506350819846,0.13431600341066857,-3.0489617503321225,-4.9338943520352,15.589431437157765
1.9705531597137451,0.9014959145499999,-0.430708068,9.861420140249999,0.3829,-0.09926,0.30702,0.5007257113430467,-0.011606439525762293,-0.004886921905584123,-0.008552113334772215,24.5,0.9905131375381871,-0.012918268448658383,-0.047670201009080364,0.12823569955476002,-2.176357064747223,-5.228201607130336,14.852785642975556
1.9853687286376953,0.8811569224499999,-0.4157529267499999,9.848259615949999,0.3829,-0.09926,0.30702,0.5007257113430467,-0.013591751549905842,-0.00473420559603462,-0.01069014166846527,24.5,0.9917158755544181,-0.009645687230853017,-0.04700259418218785,0.11915258717847065,-1.7454248726506962,-5.216986160439747,13.781779552222144
2.0007877349853516,0.8787640998499999,-0.42293139455,9.87218784195,0.3955000000000001,-0.10766,0.29806,0.5068043894837534,-0.010079276430267254,-0.0009162978572970231,-0.007330382858376185,24.5,0.991025088314214,-0.01819420998521606,-0.046207135271090646,0.12410941021879472,-2.7347640262561104,-4.994994665885333,14.395667903742465
2.0149688720703125,0.8925228297999999,-0.43010986235,9.8620183459,0.3955000000000001,-0.10766,0.29806,0.5068043894837534,-0.010384709049366262,-0.0033597588100890844,-0.007483099167925688,24.5,0.9912997354269154,-0.009491473790280503,-0.050178204677025634,0.1213132072084765,-1.7844641468766353,-5.576828317819566,14.041013225057169
2.0293118953704834,0.8691928094499999,-0.44566320924999997,9.850652438549998,0.38682000000000005,-0.10234,0.31206,0.5074294350941814,-0.011301006906663285,-0.003054326190990077,-0.012370021073509813,24.5,0.9910024398897163,-0.01838096548236016,-0.04656024233603072,0.12413077005390556,-2.7613496462508937,-5.032415938200441,14.400486454727098
2.0440332889556885,0.8901300072,-0.43848474145,9.852447055499999,0.38402000000000003,-0.11046,0.30072000000000004,0.5001052793162656,-0.014049900478554353,-0.0036651914291880926,-0.007788531787024696,24.5,0.9896970346328753,-0.020729411714147186,-0.04807568744212667,0.1332621454346495,-3.099071798197055,-5.14265751936331,15.476648756850494
2.058891534805298,0.8967102693499999,-0.42173498325,9.863812962849998,0.38402000000000003,-0.11046,0.30072000000000004,0.5001052793162656,-0.0054977871437821395,-0.00473420559603462,-0.009773843811168246,24.5,0.9903511379217821,-0.011574056851927838,-0.04802945898939096,0.12947523274435999,-2.0351766982735837,-5.286441224564627,14.990797393851444
2.072925567626953,0.8691928094499999,-0.4247260115,9.82792062385,0.3871,-0.10570000000000002,0.30926000000000003,0.5066168647015218,-0.013133602621257331,-0.003054326190990077,-0.012370021073509813,24.5,0.990520763557749,-0.020795789056277166,-0.04420974168150572,0.12838088198386557,-3.0224540137586446,-4.717434479314446,14.894341265545174
2.0871145725250244,0.8853443619999999,-0.41036907589999994,9.863812962849998,0.3871,-0.10570000000000002,0.30926000000000003,0.5066168647015218,-0.010537425358915765,-0.00473420559603462,-0.009621127501618741,24.5,0.9910867134033506,-0.01231148978810273,-0.04698650206449593,0.12404766163973126,-2.0750102253382914,-5.168265410529098,14.362114791045931
2.1015465259552,0.8925228297999999,-0.43250268495,9.847661410299999,0.38486000000000004,-0.10206000000000001,0.29190000000000005,0.49369937532875213,-0.014508049407202865,-0.0044287729769356115,-0.010995574287564279,24.5,0.9907803245548085,-0.0222518603602819,-0.04835971917894687,0.12458146229077768,-3.2316528212275033,-5.17990981905581,14.47982244017551
2.1157162189483643,0.8350950873999999,-0.44566320924999997,9.861420140249999,0.38486000000000004,-0.10206000000000001,0.29190000000000005,0.49369937532875213,-0.009010262263420728,-0.0019853120241435504,-0.010995574287564279,24.5,0.9916354681584,-0.014079758950662607,-0.04545038307198908,0.11997967059786276,-2.2337949395483623,-4.97734602795415,13.894661415612893
2.1305935382843018,0.8925228297999999,-0.43250268495,9.823733184299998,0.38682000000000005,-0.10738,0.31374,0.509502663781064,-0.01466076571675237,-0.0033597588100890844,-0.009621127501618741,24.5,0.9906927734637012,-0.021802896880139474,-0.04744837904438729,0.12570248056619057,-3.1727150464369935,-5.079169874913251,14.603241970577395
2.145253896713257,0.8566304908,-0.4618147618,9.8751788702,0.38430000000000003,-0.10738,0.3017,0.5002397869022416,-0.007330382858376185,-0.0025961772623415654,-0.0068722339297276735,24.5,0.9913322748683768,-0.012693904603946152,-0.0449316120039117,0.12280201884710557,-2.0824530959172525,-4.931612741204458,14.212853060760136
2.1595067977905273,0.8961120637,-0.44327038664999996,9.861420140249999,0.38430000000000003,-0.10738,0.3017,0.5002397869022416,-0.006566801310628666,-0.003054326190990077,-0.01114829059711378,24.5,0.9904702189664774,-0.020898079706708095,-0.047386642932966766,0.12761865724342256,-3.0784698209814976,-5.079398318763537,14.8204034691735
2.173753023147583,0.8829515394,-0.42652062845,9.88774118885,0.38570000000000004,-0.10682000000000001,0.31206,0.5075001931034115,-0.009621127501618741,-0.003054326190990077,-0.013744467859455347,24.5,0.9911245806051666,-0.011797115932139385,-0.04713076480442762,0.12373998862480114,-2.016837025271028,-5.192681257626526,14.324354435588011
2.1884779930114746,0.87158563205,-0.4283152454,9.858429112,0.38570000000000004,-0.10682000000000001,0.31206,0.5075001931034115,-0.014813482026301873,-0.004886921905584123,-0.009926560120717751,24.5,0.9904758225411676,-0.020582343843831747,-0.04581745548996287,0.12819817805147193,-3.0216337046545694,-4.9039105726591945,14.879108271181329
2.2052576541900635,0.8847461563499999,-0.4235296002,9.852447055499999,0.38374,-0.11298,0.30072000000000004,0.5004531810269568,-0.012370021073509813,-0.0025961772623415654,-0.008857545953871223,24.5,0.9900244975349177,-0.011783198983837341,-0.048576961630210844,0.13173051772925642,-2.0795475897630102,-5.340842374884465,15.255271119287977
2.219451904296875,0.8691928094499999,-0.44327038664999996,9.8572327007,0.38458000000000003,-0.10710000000000001,0.30744000000000005,0.5038765126496769,-0.008704829644321718,-0.0018325957145940463,-0.0068722339297276735,24.5,0.9901465710489846,-0.02082030186487142,-0.044270374373707184,0.13121134410943866,-3.039667538508021,-4.715297472788625,15.222554756598399
2.236384630203247,0.8697910151,-0.4247260115,9.8608219346,0.38458000000000003,-0.10710000000000001,0.30744000000000005,0.5038765126496769,-0.007788531787024696,-0.0007635815477475193,-0.009621127501618741,24.5,0.990786527780977,-0.012375104076500245,-0.04657238237640776,0.12656984777820074,-2.089276140839995,-5.11493621723306,14.653179051870374
2.2512052059173584,0.8626125472999999,-0.44207397535,9.6957171752,0.38598000000000005,-0.11018,0.29890000000000005,0.5004611901036883,-0.009773843811168246,-0.00015271630954950385,-0.010231992739816757,24.5,0.9900332767947603,-0.02105491854182438,-0.046386637015979955,0.1312976814364012,-3.099659763881916,-4.951917321386192,15.242968222705354
2.2661547660827637,0.8739784546499999,-0.42771703974999997,9.8500542329,0.38598000000000005,-0.11018,0.29890000000000005,0.5004611901036883,-0.013897184169004852,-0.0007635815477475193,-0.009621127501618741,24.5,0.9906347613997842,-0.011900133444644844,-0.04702712002312173,0.12763074203624739,-2.047442689887647,-5.171416959902588,14.775259270128034
2.2803823947906494,0.8859425676499999,-0.43489550755,9.870393224999999,0.38682000000000005,-0.10598,0.30002000000000006,0.5008727115745079,-0.009926560120717751,0.0027488935718910697,-0.0068722339297276735,24.5,0.9902522319252602,-0.021783295808382317,-0.047157280910000876,0.1292369763184684,-3.184143124103048,-5.03503011721681,15.011229003005989
2.294386386871338,0.8829515394,-0.45224347139999993,9.84945602725,0.38682000000000005,-0.10598,0.30002000000000006,0.5008727115745079,-0.012980886311707827,-0.00015271630954950385,-0.007635815477475193,24.5,0.9910211565019258,-0.01333946931508404,-0.047643945300429855,0.124214252001077,-2.2027285094249165,-5.227951719601503,14.388930233499828
2.3085343837738037,0.8572286964499999,-0.43788653580000003,9.848259615949999,0.3871,-0.10990000000000001,0.29834000000000005,0.500930310123075,-0.015271630954950386,-0.0003054326190990077,-0.012217304763960308,24.5,0.9903124390607724,-0.02125198077653416,-0.04509217612664721,0.12960062502450043,-3.0937560346345707,-4.807147113573792,15.041564834284554
2.322967529296875,0.8793623054999999,-0.40558343069999997,9.8500542329,0.39186,-0.10682000000000001,0.30492,0.5078789013140829,-0.014966198335851376,0.0006108652381980154,-0.008704829644321718,24.5,0.9909722459795997,-0.012670718523640719,-0.04673446341656222,0.1250174008664741,-2.1173335475580193,-5.132369003788271,14.475384972257396
2.337855815887451,0.8793623054999999,-0.45403808835,9.823134978649998,0.39186,-0.10682000000000001,0.30492,0.5078789013140829,-0.013439035240356337,0.00045814892864851157,-0.010231992739816757,24.5,0.9904571341719335,-0.022324070476148403,-0.047169568640275356,0.12755913546111416,-3.2374271982604292,-5.033810887198881,14.819586482778957
2.351768732070923,0.9038887371499998,-0.4331008906,9.860223728949999,0.39158000000000004,-0.10710000000000001,0.30786,0.5094929695295118,-0.012217304763960308,0.0016798794050445422,-0.011301006906663285,24.5,0.9911058339067725,-0.013489713094185299,-0.048286800426034775,0.12327059073929142,-2.224215967840858,-5.301053128127965,14.282694166813016
2.365882396697998,0.8769694829,-0.39840496289999994,9.844670382049998,0.39158000000000004,-0.10710000000000001,0.30786,0.5094929695295118,-0.009926560120717751,0.0015271630954950385,-0.007788531787024696,24.5,0.990511507414798,-0.020401096776068602,-0.04366100739857977,0.12870301224967104,-2.970682359139849,-4.659964975391324,14.927500917400486
2.381067991256714,0.8727820433499999,-0.40558343069999997,9.870991430649998,0.3890600000000001,-0.10710000000000001,0.30240000000000006,0.5042656577638419,-0.01114829059711378,0.003207042500539581,-0.0056505034533316425,24.5,0.9910459812881602,-0.011850367584234123,-0.04650697043459774,0.12459748577600342,-2.018277288064109,-5.119198380978084,14.421857344944543
2.395292043685913,0.8895318015499999,-0.41156548719999997,9.892526834049999,0.3890600000000001,-0.10710000000000001,0.30240000000000006,0.5042656577638419,-0.01145372321621279,0.0012217304763960308,-0.009315694882519735,24.5,0.9902955001164315,-0.02060832784768891,-0.04689938533004897,0.12919197702695295,-3.0460652320621153,-5.0234604422808,14.999083022519214
2.410402774810791,0.8739784546499999,-0.4157529267499999,9.808179837399999,0.38766,-0.10234,0.30744000000000005,0.505245588600237,-0.014355333097653362,0.0022907446432425577,-0.010384709049366262,24.5,0.9911105714716955,-0.012435736843999776,-0.04723224378840387,0.12375097055340215,-2.091207186282426,-5.195069654920924,14.329220917522283
2.425103187561035,0.8775676885499999,-0.42053857194999994,9.826724212550001,0.38682000000000005,-0.10318000000000001,0.29834000000000005,0.49928206496929173,-0.010995574287564279,0.00045814892864851157,-0.008246680715673207,24.5,0.9907602632007202,-0.02218083051100228,-0.04592184169040437,0.12567138129281177,-3.192882033807616,-4.900181578803536,14.594624472349164
2.4401750564575195,0.8697910151,-0.41096728154999995,9.88534836625,0.38682000000000005,-0.10318000000000001,0.29834000000000005,0.49928206496929173,-0.015424347264499889,-0.00015271630954950385,-0.008857545953871223,24.5,0.9914435093107093,-0.013373493736793937,-0.04639392067885821,0.12127869406858285,-2.173231693229272,-5.091703235035083,14.044798667472818
2.4549317359924316,0.8853443619999999,-0.4331008906,9.83390268035,0.38766,-0.10654000000000001,0.30786,0.5063682719128442,-0.012217304763960308,0.001069014166846527,-0.010384709049366262,24.5,0.9906222643633154,-0.021754963115548934,-0.04695189831542863,0.1264506629959548,-3.163639589765781,-5.021027108650296,14.687416386411645
2.4704389572143555,0.8811569224499999,-0.4223331889,9.841679353799998,0.38766,-0.10654000000000001,0.30786,0.5063682719128442,-0.013897184169004852,0.0009162978572970231,-0.008552113334772215,24.5,0.9912368113587091,-0.012620829351376529,-0.047249162069334674,0.12271028953453063,-2.1070974112367753,-5.196561061129385,14.209698869785559
2.4848008155822754,0.8667999868499999,-0.44386859230000003,9.816554716499999,0.3966200000000001,-0.1029,0.29722000000000004,0.5061971580323226,-0.016951510359994926,0.0006108652381980154,-0.007483099167925688,24.5,0.9913908520177701,-0.022318032665525456,-0.04527450547032818,0.12081516091880906,-3.175180979742064,-4.840186391875639,14.030330832454187
2.4991300106048584,0.8847461563499999,-0.4133601041499999,9.8261260069,0.3966200000000001,-0.1029,0.29722000000000004,0.5061971580323226,-0.011759155835311796,0.00015271630954950385,-0.010231992739816757,24.5,0.9919631367043692,-0.013501108069557243,-0.047060886373248234,0.11667102671309292,-2.1732410375784843,-5.175973275296589,13.514437652194111
2.5143909454345703,0.9020941201999999,-0.430708068,9.868598608049998,0.37982000000000005,-0.10766,0.30184000000000005,0.4969520033162157,-0.012217304763960308,-0.0016798794050445422,-0.009773843811168246,24.5,0.9910674266069258,-0.020949034414266123,-0.04690636164903726,0.12307025275299206,-3.0538896133473283,-5.038109483589994,14.291831983043217
2.5285730361938477,0.88354974505,-0.4354937132,9.862616551549998,0.38066,-0.10906000000000002,0.29246000000000005,0.4922692056182268,-0.015577063574049392,-0.0022907446432425577,-0.009621127501618741,24.5,0.990357975891498,-0.013834399955927333,-0.0465072355513392,0.12975656440938366,-2.2710453253104084,-5.078896008132752,15.029470250793883
2.543593645095825,0.8817551281,-0.4331008906,9.9218389109,0.38066,-0.10906000000000002,0.29246000000000005,0.4922692056182268,-0.012675453692608819,-0.0036651914291880926,-0.009010262263420728,24.5,0.9895492417552706,-0.022436137483012243,-0.04656481762794199,0.13461291036037012,-3.27635883507318,-4.940200703431862,15.634685497396605
2.5579097270965576,0.8895318015499999,-0.4247260115,9.9086783866,0.38430000000000003,-0.10402000000000002,0.30982000000000004,0.5044750566678199,-0.010995574287564279,-0.003054326190990077,-0.010995574287564279,24.5,0.9903750838488921,-0.014205927682512378,-0.047353893517204024,0.1292787441103161,-2.323814675947674,-5.170693787070249,14.979065471463374
2.5722594261169434,0.8739784546499999,-0.44985064880000003,9.705288465599999,0.38430000000000003,-0.10402000000000002,0.30982000000000004,0.5044750566678199,-0.009621127501618741,-0.0003054326190990077,-0.008399397025222712,24.5,0.9914233486784543,-0.017072596422295756,-0.048774663472087684,0.12003875353312306,-2.6226966296755343,-5.314002754213282,13.928947828500311
2.586947202682495,0.8697910151,-0.43369909624999997,9.865607579799999,0.38934,-0.10346000000000001,0.30982000000000004,0.5082106252332788,-0.0119118721448613,-0.0024434609527920616,-0.010079276430267254,24.5,0.9917939063648509,-0.015371884179907138,-0.03901761356970159,0.12077325161489258,-2.2938674771060232,-4.225487606701803,13.97037256112568
2.6010186672210693,0.8811569224499999,-0.42771703974999997,9.850652438549998,0.38934,-0.10346000000000001,0.30982000000000004,0.5082106252332788,-0.014508049407202865,-0.00473420559603462,-0.009773843811168246,24.5,0.9913486135824154,-0.01644733962293927,-0.0489457408343006,0.12067197612425268,-2.557187724323264,-5.340541321137977,13.999662697767228
2.62186598777771,0.8865407732999999,-0.41635113239999993,9.855438083749998,0.3829,-0.10178000000000001,0.28714000000000006,0.48930660939742077,-0.01832595714594046,-0.003054326190990077,-0.007788531787024696,24.5,0.9915555726981877,-0.013618532948725882,-0.03964974863357772,0.1227191070892697,-2.1114373529278314,-4.317732928360936,14.190184996996239
2.6358909606933594,0.8572286964499999,-0.4235296002,9.869196813699999,0.3901800000000001,-0.10822000000000001,0.30800000000000005,0.5087396198449656,-0.012522737383059314,-0.0036651914291880926,-0.010079276430267254,24.5,0.9906856202952853,-0.019633331222533194,-0.046480947867715505,0.12647551356120557,-2.9148456372393556,-4.998504580474006,14.677834184901277
2.6507303714752197,0.87637127725,-0.4199403663,9.825527801249999,0.3901800000000001,-0.10822000000000001,0.30800000000000005,0.5087396198449656,-0.008552113334772215,-0.0033597588100890844,-0.009773843811168246,24.5,0.9911882856181262,-0.010248850484248175,-0.047252145985341464,0.12332063175694234,-1.8397994091143866,-5.229410039363659,14.268269389060194
2.66542387008667,0.8871389789499998,-0.41694933804999995,9.860223728949999,0.38514000000000004,-0.10738,0.30646,0.5037668266172357,-0.008246680715673207,-0.003970624048287101,-0.008552113334772215,24.5,0.9904776071217776,-0.018852780695064762,-0.046609043468861085,0.1281650479549673,-2.8363597140499532,-5.019678922056639,14.870244882018707
2.6798605918884277,0.8871389789499998,-0.42771703974999997,9.8321080634,0.3871,-0.10766,0.2975,0.4999433323887818,-0.010995574287564279,-0.0068722339297276735,-0.008704829644321718,24.5,0.9910271346556337,-0.009942057152776226,-0.04840239835244663,0.12419171353011571,-1.8261855149971522,-5.363077700678155,14.371241275999296
2.696016311645508,0.8751748659499998,-0.42532421714999996,9.828518829499998,0.3871,-0.10766,0.2975,0.4999433323887818,-0.012064588454410803,-0.0033597588100890844,-0.010231992739816757,24.5,0.9904251992913314,-0.018622033631272294,-0.046494206613524644,0.12864460044456116,-2.8107501218895257,-5.0086891856044895,14.92418995895889
2.7108750343322754,0.8709874264,-0.430708068,9.8500542329,0.37898000000000004,-0.10878000000000002,0.29316000000000003,0.491326484529381,-0.009621127501618741,-0.006719517620178169,-0.01069014166846527,24.5,0.990397026874789,-0.008761234430571772,-0.04633081907824393,0.12996316836846364,-1.6913441147511392,-5.134528756697696,15.027493746934567
2.7261569499969482,0.85244305125,-0.4450650036,9.830313446449999,0.37898000000000004,-0.10878000000000002,0.29316000000000003,0.491326484529381,-0.01466076571675237,-0.004581489286485115,-0.00946841119206924,24.5,0.9898142273409056,-0.01797429757533266,-0.04553539695667966,0.13368338567001062,-2.7473501744132207,-4.895429124598461,15.501005457349102
2.7406058311462402,0.8727820433499999,-0.42412780585,9.8153583052,0.39130000000000004,-0.10654000000000001,0.29988000000000004,0.5043753324658137,-0.01069014166846527,-0.0054977871437821395,-0.006566801310628666,24.5,0.9906659959764922,-0.010613681502179369,-0.047279734232285334,0.12740824506993007,-1.9034070340227134,-5.219545768099717,14.74377897525529
2.7552151679992676,0.8805587167999999,-0.42173498325,9.853643466800001,0.38150000000000006,-0.11270000000000002,0.30506,0.5013034446320911,-0.004581489286485115,-0.004581489286485115,-0.009926560120717751,24.5,0.9898694649784763,-0.01874610260354971,-0.046383879213981336,0.1328742326016041,-2.84454797552668,-4.982198348178241,15.4144698430208
2.7698864936828613,0.8757730716000001,-0.44027935839999993,9.853643466800001,0.38150000000000006,-0.11270000000000002,0.30506,0.5013034446320911,-0.007483099167925688,-0.002901609881440573,-0.010842857978014774,24.5,0.9899704356199388,-0.008939502447310626,-0.04816067788034404,0.1325110221852083,-1.7532888235608917,-5.3354203972085825,15.329549035182788
2.7839972972869873,0.8745766602999999,-0.4283152454,9.762716207999999,0.3896200000000001,-0.11102000000000001,0.30954000000000004,0.5098472284910452,-0.01114829059711378,-0.0019853120241435504,-0.008857545953871223,24.5,0.9895329661346366,-0.018449641703589547,-0.0467810355672933,0.1352614297020741,-2.8291607373372067,-5.0250746318328945,15.691462001872802
2.7983553409576416,0.8859425676499999,-0.43130627364999996,9.828518829499998,0.3896200000000001,-0.11102000000000001,0.30954000000000004,0.5098472284910452,-0.012064588454410803,-0.003054326190990077,-0.01114829059711378,24.5,0.9903171076551043,-0.010374608559566609,-0.0481704973822629,0.12978442497006193,-1.902274067271111,-5.319830520778419,15.020896279201503
2.812575578689575,0.8554340794999999,-0.4211367776,9.884750160599998,0.38262000000000007,-0.10934,0.30114,0.4990376735277609,-0.014813482026301873,-0.0044287729769356115,-0.010231992739816757,24.5,0.9898218685998902,-0.018963228391026172,-0.044934770613859656,0.13369342093121542,-2.850533778216917,-4.8118719512838375,15.50435977760786
2.8271303176879883,0.861416136,-0.42891345105,9.8620183459,0.38262000000000007,-0.10934,0.30114,0.4990376735277609,-0.010995574287564279,-0.002138028333693054,-0.01069014166846527,24.5,0.9904967542696437,-0.010567581253170632,-0.04691486663395711,0.12885457421635008,-1.9002715367692495,-5.175957813710447,14.909962023360348
2.8416085243225098,0.8697910151,-0.44207397535,9.855438083749998,0.39158000000000004,-0.11158000000000001,0.30674,0.5097787955574458,-0.012828170002158324,-0.005345070834232635,-0.007177666548826681,24.5,0.9898810328067209,-0.01969351313333376,-0.046110526029114175,0.1327460953071131,-2.947519210503512,-4.936947052165826,15.403038273867594
2.8573551177978516,0.8656035755499999,-0.43190447930000003,9.878768104099999,0.38514000000000004,-0.10850000000000001,0.30688000000000004,0.504262237332918,-0.009621127501618741,0.0006108652381980154,-0.00916297857297023,24.5,0.99064774461874,-0.011217706318156663,-0.046617177403729365,0.12774211489431564,-1.9640873444794529,-5.1346392588703464,14.78334412110286
2.872469186782837,0.8913264184999999,-0.42532421714999996,9.87577707585,0.38514000000000004,-0.10850000000000001,0.30688000000000004,0.504262237332918,-0.012522737383059314,-0.001069014166846527,-0.00916297857297023,24.5,0.9899468164550974,-0.020259540384776675,-0.04716213369953786,0.13179751423574815,-3.023654994520864,-5.050612047717306,15.300447844099791
2.886540174484253,0.88354974505,-0.43010986235,9.869795019349999,0.39046000000000003,-0.10654000000000001,0.31178000000000006,0.5108977897779555,-0.014202616788103858,-0.0013744467859455349,-0.010384709049366262,24.5,0.9907667677805314,-0.012069802561961924,-0.04756527512508681,0.12638463644806167,-2.068263297828801,-5.232721481835755,14.633579973541947
2.901860475540161,0.8769694829,-0.42053857194999994,9.80159957525,0.39046000000000003,-0.10654000000000001,0.31178000000000006,0.5108977897779555,-0.01069014166846527,0.0016798794050445422,-0.006108652381980154,24.5,0.9903862186878221,-0.02167459404584002,-0.04589943026135892,0.1286801931451311,-3.1497356129023206,-4.895469772732076,14.940533511328443
2.917323350906372,0.84765740605,-0.43369909624999997,9.8608219346,0.38822,-0.10682000000000001,0.29386,0.4984766598347409,-0.014202616788103858,0.0022907446432425577,-0.0070249502392771765,24.5,0.9911287817795207,-0.012955507344278673,-0.04566424025884847,0.12413971934589572,-2.12963165026592,-5.0083947065505505,14.371483275043026
2.931680679321289,0.88833539025,-0.42053857194999994,9.864411168499998,0.38822,-0.10682000000000001,0.29386,0.4984766598347409,-0.01466076571675237,0.0012217304763960308,-0.009010262263420728,24.5,0.9902767910111844,-0.021332925057715165,-0.0479125176773861,0.12884554374477722,-3.142364074927138,-5.128860597417101,14.967065771155132
2.9458770751953125,0.8787640998499999,-0.4157529267499999,9.83629550295,0.38738000000000006,-0.11214000000000002,0.30996,0.5086392096565109,-0.012064588454410803,0.0,-0.008552113334772215,24.5,0.9906516610667595,-0.011590004158479963,-0.046393469957438115,0.12775994745844704,-2.003259857856741,-5.1036678614749915,14.786530041534863
2.9618606567382812,0.8757730716000001,-0.44566320924999997,9.8404829425,0.3896200000000001,-0.11158000000000001,0.29862,0.5034160756273086,-0.009773843811168246,-0.002138028333693054,-0.008552113334772215,24.5,0.9899150034320666,-0.02039699512337123,-0.04642572958134455,0.13227584890246855,-3.0302285419453443,-4.963378578850554,15.353311647092243
2.977311372756958,0.8985048862999999,-0.45403808835,9.86740219675,0.3896200000000001,-0.11158000000000001,0.29862,0.5034160756273086,-0.016798794050445424,0.0016798794050445422,-0.009926560120717751,24.5,0.9904934169094284,-0.01189835234564558,-0.04905256553174918,0.12796509713706178,-2.079469034342531,-5.40109494338701,14.821004284556748
2.9914801120758057,0.8775676885499999,-0.45942193919999996,9.839286531199999,0.39382000000000006,-0.10682000000000001,0.30884000000000006,0.5117488157289669,-0.017715091907742446,-0.0009162978572970231,-0.008552113334772215,24.5,0.9905116879197827,-0.021332141620960702,-0.045522312029961695,0.12790330306764086,-3.1011522189819645,-4.860146019721414,14.84724762428926
3.0079495906829834,0.8919246241499998,-0.42053857194999994,9.916455060049998,0.39382000000000006,-0.10682000000000001,0.30884000000000006,0.5117488157289669,-0.012370021073509813,0.0009162978572970231,-0.010079276430267254,24.5,0.9911545541513948,-0.01272049654942328,-0.04724240445277269,0.1233652867463396,-2.121807723580525,-5.192977214281596,14.286037441764195
3.0223071575164795,0.8703892207499999,-0.41515472109999996,9.882357337999998,0.39466,-0.10934,0.30408,0.5100748941086986,-0.015118914645400881,0.001069014166846527,-0.009315694882519735,24.5,0.9904359328275948,-0.02080164281759664,-0.04513814737143197,0.12871092522352534,-3.038820059760142,-4.821863488936272,14.936594514999172
3.037583827972412,0.8560322851499998,-0.4211367776,9.864411168499998,0.38766,-0.10906000000000002,0.30100000000000005,0.5027676990420129,-0.015118914645400881,-0.0012217304763960308,-0.009621127501618741,24.5,0.9909824701411366,-0.011562201065296745,-0.04604119415291357,0.12530070957688497,-1.9822071692087384,-5.068951384694294,14.500326642722243
3.051985740661621,0.8871389789499998,-0.43130627364999996,9.859625523299998,0.38766,-0.10906000000000002,0.30100000000000005,0.5027676990420129,-0.011301006906663285,0.0015271630954950385,-0.010079276430267254,24.5,0.9902006570308751,-0.02021751164241263,-0.04682826492805049,0.13000394087273134,-3.004561514189675,-5.018767427138604,15.090928257841826
3.066049098968506,0.8823533337499999,-0.40558343069999997,9.869795019349999,0.38738000000000006,-0.10486000000000001,0.29512,0.4981512806367159,-0.013897184169004852,0.00015271630954950385,-0.008246680715673207,24.5,0.9909588772041802,-0.011740221512148699,-0.047230215219288545,0.1250279075223446,-2.0185714989630013,-5.202192640515973,14.473577677303314
3.080552339553833,0.86440716425,-0.4157529267499999,9.870393224999999,0.38738000000000006,-0.10486000000000001,0.29512,0.4981512806367159,-0.011301006906663285,-0.0006108652381980154,-0.004886921905584123,24.5,0.9905613909264813,-0.020893700160732356,-0.0444500670167958,0.12796786956728706,-3.035276263706094,-4.744560489188029,14.847998698819639
3.0946686267852783,0.8691928094499999,-0.43369909624999997,9.847661410299999,0.38794000000000006,-0.10122000000000002,0.29540000000000005,0.49800009236946946,-0.01466076571675237,-0.0024434609527920616,-0.007788531787024696,24.5,0.9913344639947488,-0.013112276824292772,-0.04629192554956514,0.12223381824045598,-2.146883983343076,-5.081692725229181,14.15372316045791
3.110771656036377,0.8979066806499999,-0.4073780476499999,9.8668039911,0.38794000000000006,-0.10122000000000002,0.29540000000000005,0.49800009236946946,-0.017715091907742446,-0.0003054326190990077,-0.007788531787024696,24.5,0.9911810006266106,-0.020229797526406808,-0.05298176004428006,0.11976607362472014,-3.0415747762173693,-5.749728162970539,13.93226668098734
3.1248819828033447,0.8889335959,-0.4211367776,9.842875765099999,0.39074000000000003,-0.10962000000000001,0.30184000000000005,0.5057684031253831,-0.009773843811168246,0.0019853120241435504,-0.009621127501618741,24.5,0.9910767656335044,-0.01799026075165309,-0.044433390864590076,0.12437390769688624,-2.6867963597738034,-4.7954531881967055,14.418258696401201
3.1388468742370605,0.8679963981499998,-0.45343988269999996,9.9206424996,0.38262000000000007,-0.10262,0.30674,0.5010173214570531,-0.012064588454410803,-0.003054326190990077,-0.010537425358915765,24.5,0.9916783661186727,-0.011308086422894627,-0.048905580643712636,0.11855121060349204,-1.9585188953566233,-5.411954918127494,13.726836470314794
3.1537373065948486,0.8967102693499999,-0.43250268495,9.9170532657,0.38262000000000007,-0.10262,0.30674,0.5010173214570531,-0.012980886311707827,0.0022907446432425577,-0.008093964406123704,24.5,0.9910810064897047,-0.019909092559835043,-0.046882716897650334,0.12314250876562786,-2.9353055074107006,-5.050044632782859,14.294953281278824
3.16790509223938,0.9068797653999999,-0.42532421714999996,9.84108114815,0.38934,-0.10206000000000001,0.30660000000000004,0.505969800679843,-0.010842857978014774,-0.0018325957145940463,-0.008399397025222712,24.5,0.9917114715845335,-0.011467656534658846,-0.04874451717055317,0.11832506930930398,-1.9732536541460837,-5.391877157062247,13.700972683622881
3.1829922199249268,0.89551385805,-0.4199403663,9.8919286284,0.38934,-0.10206000000000001,0.30660000000000004,0.505969800679843,-0.008399397025222712,-0.004276056667386108,-0.010231992739816757,24.5,0.9911832463899699,-0.02024126993517409,-0.046472723203200964,0.12241874474658757,-2.963552122804005,-5.000828489914728,14.211067419563694
3.197434663772583,0.8721838377,-0.43609191885,9.869795019349999,0.38458000000000003,-0.10822000000000001,0.29232,0.4950397228506012,-0.012980886311707827,-0.005345070834232635,-0.008246680715673207,24.5,0.9905961050476085,-0.01247801224365536,-0.045621697481904054,0.12838347476924142,-2.0960460110953867,-5.001476274487883,14.86055220232323
3.212599039077759,0.8811569224499999,-0.4193421606499999,9.892526834049999,0.38458000000000003,-0.10822000000000001,0.29232,0.4950397228506012,-0.01069014166846527,-0.0036651914291880926,-0.009773843811168246,24.5,0.9898154519787161,-0.021269531454234554,-0.04744595533912386,0.13252116577303885,-3.1468552287079623,-5.065133435444346,15.390584691293283
3.2285516262054443,0.9062815597499999,-0.39361931769999997,9.8273224182,0.38682000000000005,-0.10234,0.30562,0.5034945604472804,-0.010384709049366262,-0.0035124751196385882,-0.007177666548826681,24.5,0.9906100074909621,-0.013001252807014694,-0.04827851500877823,0.12724765409527736,-2.189704291388442,-5.298332150214328,14.740886135986477
3.2431857585906982,0.8901300072,-0.4139583098,9.84945602725,0.3773,-0.10430000000000002,0.30758,0.49783454721423265,-0.012522737383059314,-0.004581489286485115,-0.00916297857297023,24.5,0.9902110901228119,-0.02191750304399931,-0.04495955051551663,0.13030832235721354,-3.170962526366527,-4.779817642875187,15.12607038809845
3.259544849395752,0.8997012976000001,-0.43190447930000003,9.85304526115,0.3773,-0.10430000000000002,0.30758,0.49783454721423265,-0.01114829059711378,-0.004581489286485115,-0.010842857978014774,24.5,0.9908187137990097,-0.013521071694673707,-0.047672661729064335,0.1257886096972614,-2.232181640202858,-5.225070712396249,14.572335516829163
3.274289608001709,0.8859425676499999,-0.41515472109999996,9.851848849849999,0.39354,-0.10234,0.30072000000000004,0.5057467010273029,-0.015271630954950386,-0.004276056667386108,-0.007177666548826681,24.5,0.9920277459089601,-0.01100186777134551,-0.04673814599923585,0.1165137586763192,-1.882700774258946,-5.173233953604463,13.482471411018427
3.2889935970306396,0.8841479507,-0.45643091095,9.862616551549998,0.39354,-0.10234,0.30072000000000004,0.5057467010273029,-0.0119118721448613,-0.005803219762881146,-0.009773843811168246,24.5,0.9914380962169117,-0.020231022512207784,-0.04672417029704581,0.12024166918314512,-2.9549647427154597,-5.036078682607588,13.960103810353878
3.3033602237701416,0.8925228297999999,-0.41276189849999995,9.857830906349998,0.38402000000000003,-0.10374000000000001,0.30618,0.5019756372574271,-0.010384709049366262,-0.004276056667386108,-0.007177666548826681,24.5,0.9916742605753462,-0.010410712430351179,-0.04785840169202487,0.11909387627631253,-1.8443926647575257,-5.30400483959184,13.781574916482315
3.317483901977539,0.8781658942,-0.42652062845,9.8548398781,0.38010000000000005,-0.10262,0.30156,0.49592873278324984,-0.011606439525762293,-0.00473420559603462,-0.009010262263420728,24.5,0.991051088926622,-0.019087211065622656,-0.04638444872435999,0.12370085055338294,-2.8371289595619773,-5.003494920964062,14.353462434997807
3.3325278759002686,0.8709874264,-0.43848474145,9.86620578545,0.38010000000000005,-0.10262,0.30156,0.49592873278324984,-0.013286318930806834,-0.0033597588100890844,-0.01114829059711378,24.5,0.99169217337757,-0.01019806914944132,-0.046760886343366094,0.11939871086271236,-1.8063696985627777,-5.1814147943304905,13.812353630564315
3.3467299938201904,0.8901300072,-0.4193421606499999,9.858429112,0.38794000000000006,-0.10626000000000001,0.29344000000000003,0.49789121783779244,-0.0119118721448613,-0.00473420559603462,-0.01069014166846527,24.5,0.9909380981411785,-0.018609652056545124,-0.04661157371693447,0.12459023917750975,-2.7905184225540336,-5.033673600020839,14.45502619454375
3.361287832260132,0.88833539025,-0.42592242280000003,9.878169898449999,0.38794000000000006,-0.10626000000000001,0.29344000000000003,0.49789121783779244,-0.009621127501618741,-0.002901609881440573,-0.01145372321621279,24.5,0.9913093213481581,-0.009119898282611798,-0.04821384639156706,0.12205769897757143,-1.7180984372616765,-5.357128737405105,14.119127603568524
3.3780596256256104,0.8548358738499999,-0.44685962055,9.883553749299999,0.3899,-0.10206000000000001,0.29484000000000005,0.4993684803829734,-0.009315694882519735,-0.003207042500539581,-0.008246680715673207,24.5,0.9910368156673182,-0.018473379062166905,-0.04541356023249295,0.12426734408128758,-2.7557388012577193,-4.900277270727864,14.412112847481671
3.392127513885498,0.8829515394,-0.43968115274999997,9.85304526115,0.38934,-0.10486000000000001,0.30002000000000006,0.5025865652800521,-0.010384709049366262,-0.003207042500539581,-0.00946841119206924,24.5,0.9915338988057896,-0.010648881557392253,-0.04940834687102466,0.11960745837964863,-1.8961307216486605,-5.47622659380491,13.847255713405888
3.4070796966552734,0.8727820433499999,-0.40259240244999994,9.862616551549998,0.38934,-0.10486000000000001,0.30002000000000006,0.5025865652800521,-0.010537425358915765,-0.00473420559603462,-0.006414085001079162,24.5,0.9909924372850918,-0.018604202814254844,-0.04588260090162071,0.12442933663691275,-2.7783532218715163,-4.951290414730869,14.433395288307342
3.42124605178833,0.8739784546499999,-0.4354937132,9.85424167245,0.3871,-0.11102000000000001,0.3003,0.5023464346444593,-0.012980886311707827,-0.0044287729769356115,-0.010537425358915765,24.5,0.9896903859520414,-0.01897139072993333,-0.04738411863096953,0.13381992224417785,-2.8907859865637753,-5.089612280107879,15.529476829695225
3.4363319873809814,0.8793623054999999,-0.45284167705,9.861420140249999,0.3871,-0.11102000000000001,0.3003,0.5023464346444593,-0.01145372321621279,-0.0019853120241435504,-0.011301006906663285,24.5,0.9905244797962943,-0.010720482863544113,-0.047343552485747134,0.12847145289706272,-1.922156530559411,-5.223172424085204,14.867747820473644
3.4508047103881836,0.88354974505,-0.4073780476499999,9.858429112,0.39130000000000004,-0.10150000000000002,0.30870000000000003,0.5086389977184211,-0.012522737383059314,-0.0015271630954950385,-0.008552113334772215,24.5,0.9916581401012694,-0.013619289831231673,-0.04716416242072347,0.11918133200520822,-2.2012975719769994,-5.180585405220976,13.805918233456797
3.4649646282196045,0.9038887371499998,-0.4414757697,9.855438083749998,0.39130000000000004,-0.10150000000000002,0.30870000000000003,0.5086389977184211,-0.013439035240356337,-0.039095375244672985,-0.012217304763960308,24.5,0.9911574646373384,-0.023204479818426053,-0.049538768060990175,0.12088979638099681,-3.3380021329618432,-5.312687080659842,14.062755099296579
3.479543685913086,0.8727820433499999,-0.41096728154999995,9.832706269049998,0.3896200000000001,-0.11074,0.30660000000000004,0.5080065472019037,-0.006719517620178169,-0.0024434609527920616,-0.006566801310628666,24.5,0.9912478967561507,-0.014673984520798211,-0.04497465954414788,0.12324593848755847,-2.3110685847195667,-4.907368406193512,14.273941797542049
3.4938783645629883,0.90029950325,-0.43788653580000003,9.8548398781,0.38598000000000005,-0.10402000000000002,0.32116,0.5127811096364608,-0.012675453692608819,-0.0022907446432425577,-0.010995574287564279,24.5,0.9906838228039949,-0.01998644816069633,-0.05339674784518697,0.12367252097349676,-3.0426074695145804,-5.788409579426704,14.385332601155637
3.5111210346221924,0.8536394625499999,-0.4342973019,9.83150985775,0.38598000000000005,-0.10402000000000002,0.32116,0.5127811096364608,-0.015271630954950386,-0.0009162978572970231,-0.007330382858376185,24.5,0.9914536419539096,-0.014382152006662265,-0.0456830798187632,0.12135026072595999,-2.278500563398767,-4.9964923746590335,14.055592377149773
3.5252201557159424,0.8739784546499999,-0.4157529267499999,9.8632147572,0.38150000000000006,-0.10374000000000001,0.29848,0.49537314016809597,-0.01145372321621279,0.0013744467859455349,-0.0119118721448613,24.5,0.9905133828476238,-0.022080766969870495,-0.046794871884467876,0.1273024669639018,-3.202726904742025,-4.995644933306461,14.786956279403508
3.539367198944092,0.861416136,-0.41515472109999996,9.855438083749998,0.38150000000000006,-0.10374000000000001,0.29848,0.49537314016809597,-0.015118914645400881,0.0016798794050445422,-0.007941248096574201,24.5,0.991225611015746,-0.013204481219680344,-0.04636021340887093,0.1230778629765073,-2.1627229376438666,-5.0863214111948585,14.252147222915687
3.5542044639587402,0.8943174467499999,-0.4331008906,9.8859465719,0.3890600000000001,-0.10766,0.31444000000000005,0.5116941203492571,-0.016798794050445424,0.004581489286485115,-0.0070249502392771765,24.5,0.9904053693546159,-0.021743183400031327,-0.047424227278380235,0.12796632758748688,-3.177154283679161,-5.070049996299593,14.865042389341529
3.5686233043670654,0.9056833541,-0.4271188341,9.87218784195,0.3890600000000001,-0.10766,0.31444000000000005,0.5116941203492571,-0.014049900478554353,0.0025961772623415654,-0.007635815477475193,24.5,0.9910156612531077,-0.012731993315294805,-0.04836947944114546,0.1240413195506951,-2.1431269708896803,-5.319601884495708,14.368317124525511
3.583301305770874,0.8829515394,-0.4193421606499999,9.848857821599998,0.38570000000000004,-0.11018,0.30492,0.5038653875788651,-0.014202616788103858,0.0,-0.007941248096574201,24.5,0.9902378521617918,-0.02044717780053196,-0.046305291688359805,0.129871971678461,-3.022021961893063,-4.956274905300633,15.074473752832583
3.5978434085845947,0.9110672049499998,-0.44865423749999994,9.90209812445,0.38766,-0.10878000000000002,0.30086,0.50262322230474,-0.013744467859455347,0.001069014166846527,-0.009315694882519735,24.5,0.9907812393787899,-0.012041336352992779,-0.04933307143121859,0.12559374975302418,-2.086960695083127,-5.435890957526263,14.5479165299276
3.6136116981506348,0.9014959145499999,-0.43489550755,9.841679353799998,0.38766,-0.10878000000000002,0.30086,0.50262322230474,-0.012675453692608819,0.0,-0.010537425358915765,24.5,0.9901392836408061,-0.020593020761029236,-0.04732615289272569,0.13023195360425707,-3.056184209575964,-5.068991590104577,15.121391912896813
3.6291768550872803,0.8805587167999999,-0.4199403663,9.886544777549998,0.38542000000000004,-0.10710000000000001,0.2968,0.49810563779182426,-0.011759155835311796,0.0025961772623415654,-0.008857545953871223,24.5,0.9908601182419936,-0.011764097815932295,-0.04709190089453225,0.1258577965410929,-2.023613445526423,-5.1844195651625835,14.569372181181047
3.6446406841278076,0.8973084749999999,-0.430708068,9.821938567349997,0.38542000000000004,-0.10710000000000001,0.2968,0.49810563779182426,-0.007177666548826681,0.001069014166846527,-0.010231992739816757,24.5,0.9901484983727898,-0.020736287615813937,-0.04778979734853,0.12996958419341778,-3.0783067032536895,-5.120336145821347,15.093767190730908
3.659930944442749,0.8985048862999999,-0.44027935839999993,9.842875765099999,0.39242,-0.10766,0.29904000000000003,0.5049842112383317,-0.014813482026301873,-0.0003054326190990077,-0.008857545953871223,24.5,0.9909135760865901,-0.012340960974675406,-0.04839963461099359,0.12488178721907098,-2.1034931220064106,-5.326861094942995,14.463747785588868
3.674760580062866,0.8817551281,-0.43609191885,9.84586679335,0.38794000000000006,-0.10514000000000001,0.30562,0.5049311315417183,-0.01466076571675237,0.0006108652381980154,-0.010995574287564279,24.5,0.9905648731780095,-0.02163638038468542,-0.045619063387683775,0.12740486696085718,-3.1348371323317976,-4.868211467717146,14.791399203485636
3.690340042114258,0.9176474671,-0.43848474145,9.859625523299998,0.38794000000000006,-0.10514000000000001,0.30562,0.5049311315417183,-0.016493361431346415,0.0012217304763960308,-0.010384709049366262,24.5,0.9911402913354184,-0.013412239947108067,-0.04868626397624368,0.12284413869281177,-2.2188775518217576,-5.34856822878524,14.234325015365446
3.705836057662964,0.8799605111499998,-0.42173498325,9.851250644199999,0.3890600000000001,-0.10514000000000001,0.30632000000000004,0.5062154142259994,-0.01664607774089592,0.0025961772623415654,-0.00946841119206924,24.5,0.9907248300131679,-0.021481732050259383,-0.04417977255052742,0.1266925178567548,-3.0921239924022146,-4.70910272309897,14.70187901258919
3.722820520401001,0.8847461563499999,-0.44267218099999994,9.89013401145,0.3890600000000001,-0.10514000000000001,0.30632000000000004,0.5062154142259994,-0.015424347264499889,0.002138028333693054,-0.0068722339297276735,24.5,0.9913171075219153,-0.013298634004934478,-0.047156286039418696,0.12202386387487808,-2.1794783080210354,-5.177883982573602,14.133340265864064
3.738246440887451,0.8985048862999999,-0.45463629399999994,9.8608219346,0.38738000000000006,-0.09954,0.30772000000000005,0.5046415305937474,-0.012980886311707827,-0.038637226316024474,-0.007941248096574201,24.5,0.9916252464438569,-0.021543369323628266,-0.05014045694736388,0.117052075720406,-3.1361194532393295,-5.416654418882593,13.612546022253282
3.7522740364074707,0.8907282128499999,-0.43190447930000003,9.855438083749998,0.38150000000000006,-0.10430000000000002,0.30996,0.5024897427808851,-0.016035212502697904,0.00015271630954950385,-0.010231992739816757,24.5,0.9916705832897759,-0.014372031173672997,-0.04404047283096345,0.12018042981485687,-2.2482064210849253,-4.812360085352949,13.914424227383687
3.7670397758483887,0.88833539025,-0.44267218099999994,9.851848849849999,0.38150000000000006,-0.10430000000000002,0.30996,0.5024897427808851,-0.012064588454410803,0.0003054326190990077,-0.010537425358915765,24.5,0.9907643870965795,-0.021941879600700105,-0.048265899099364774,0.12479938367178539,-3.196049152667647,-5.173019047686971,14.503057959500477
3.78241229057312,0.88833539025,-0.42293139455,9.83150985775,0.39354,-0.10038000000000001,0.2858800000000001,0.496666135749157,-0.013744467859455347,-0.0027488935718910697,-0.009621127501618741,24.5,0.9915900493386461,-0.013755343761892571,-0.048044077252473866,0.1193806148900728,-2.2302520213025754,-5.278435303527568,13.832770805052181
3.7969865798950195,0.8757730716000001,-0.4295116567,9.86500937415,0.39354,-0.10038000000000001,0.2858800000000001,0.496666135749157,-0.014508049407202865,-0.0027488935718910697,-0.009010262263420728,24.5,0.991916822474627,-0.021749176376273473,-0.0422631589068611,0.1176512474137291,-3.0528264256504842,-4.515307816346204,13.648881912034303
3.8120768070220947,0.8584251077499999,-0.4211367776,9.842875765099999,0.39074000000000003,-0.10234,0.30646,0.5070196789080282,-0.010995574287564279,-0.0022907446432425577,-0.01114829059711378,24.5,0.9922086446870508,-0.013151373032004473,-0.046452681012544184,0.11485292866272706,-2.1155709224370263,-5.115316338674083,13.300263634483432
3.826144218444824,0.8907282128499999,-0.43250268495,9.851848849849999,0.39158000000000004,-0.10346000000000001,0.2975,0.5025386731386949,-0.01069014166846527,-0.0025961772623415654,-0.009926560120717751,24.5,0.9913961099170622,-0.0213256097717644,-0.04684846257213012,0.12035029357590588,-3.0821744481458886,-5.0346211392422475,13.978615953538041
3.8412654399871826,0.8775676885499999,-0.4223331889,9.851848849849999,0.39158000000000004,-0.10346000000000001,0.2975,0.5025386731386949,-0.014049900478554353,-0.0036651914291880926,-0.012064588454410803,24.5,0.9919551506105245,-0.012017682873550142,-0.04682847966308751,0.11699422194299265,-2.002403349600637,-5.168871284971717,13.543520915376662
3.8553357124328613,0.8847461563499999,-0.4354937132,9.865607579799999,0.38822,-0.10178000000000001,0.31262,0.5087290056601844,-0.015271630954950386,-0.0025961772623415654,-0.007330382858376185,24.5,0.9913161011210931,-0.02106271424804887,-0.04659247473314603,0.12115234634467834,-3.0525802482985154,-5.006694941791592,14.069032925838615
3.8701658248901367,0.87158563205,-0.43609191885,9.87697348715,0.38822,-0.10178000000000001,0.31262,0.5087290056601844,-0.01664607774089592,-0.0033597588100890844,-0.009926560120717751,24.5,0.9919933829182493,-0.012261635172974886,-0.04663304539839503,0.11672248980450826,-2.026146604700098,-5.1438707094234095,13.512676327787549
3.8847811222076416,0.8877371846000001,-0.45104706009999995,9.812965482600001,0.39130000000000004,-0.10878000000000002,0.29932000000000003,0.5045208031389786,-0.007330382858376185,-0.0015271630954950385,-0.009621127501618741,24.5,0.991181793571663,-0.02033494708933762,-0.04662166710135872,0.12235833512934458,-2.976091489802366,-5.0166249297985495,14.205167787002006
3.899043560028076,0.8721838377,-0.44685962055,9.84227755945,0.39130000000000004,-0.10878000000000002,0.29932000000000003,0.5045208031389786,-0.011301006906663285,-0.002901609881440573,-0.010842857978014774,24.5,0.9910278142496995,-0.010764302073063624,-0.04620703050819595,0.1249516367077974,-1.8918741622038309,-5.1000330014969375,14.456459109737626
3.9133388996124268,0.87158563205,-0.41216369284999993,9.860223728949999,0.39270000000000005,-0.10150000000000002,0.31374,0.5127848745819246,-0.005345070834232635,-0.006566801310628666,-0.009621127501618741,24.5,0.9914534078191207,-0.019461967811003955,-0.04706639486432745,0.12010881069784572,-2.871416188682063,-5.086129544665459,13.94233927538206
3.9274399280548096,0.87637127725,-0.45224347139999993,9.870991430649998,0.39186,-0.10878000000000002,0.29988000000000004,0.505287405740535,-0.009315694882519735,-0.0036651914291880926,-0.009621127501618741,24.5,0.9903932050955194,-0.019324795721972574,-0.04461059594445977,0.12945171416558546,-2.866108181647497,-4.7817714301688,15.013224885609533
3.9426136016845703,0.8554340794999999,-0.44087756405,9.86500937415,0.39186,-0.10878000000000002,0.29988000000000004,0.505287405740535,-0.010079276430267254,-0.003207042500539581,-0.009926560120717751,24.5,0.9910706271315506,-0.011109058264246885,-0.04676046471113168,0.12437467508120598,-1.936292203694759,-5.159147160209483,14.393152900592995
3.9567654132843018,0.8775676885499999,-0.4157529267499999,9.8321080634,0.39130000000000004,-0.10066000000000001,0.30016000000000004,0.5033330420308209,-0.010842857978014774,-0.005803219762881146,-0.010079276430267254,24.5,0.9915668589110155,-0.01956152622358654,-0.04730571149220627,0.11905746789413242,-2.8807538496850613,-5.115034698238742,13.822159327717117
3.971928834915161,0.8602197247,-0.4157529267499999,9.6945207639,0.39130000000000004,-0.10066000000000001,0.30016000000000004,0.5033330420308209,-0.005803219762881146,-0.0033597588100890844,-0.009621127501618741,24.5,0.9922655550353545,-0.010760069828883608,-0.046360592044206665,0.11464721842664927,-1.8402500311317735,-5.13696085298437,13.264116322195408
3.9868874549865723,0.87158563205,-0.4366901245,9.87458066455,0.39466,-0.10206000000000001,0.29918,0.5056495145849544,-0.010842857978014774,-0.0025961772623415654,-0.009621127501618741,24.5,0.9916418397383385,-0.01968554810488076,-0.04585238879363764,0.11898108806903186,-2.874016776499199,-4.9481316489758465,13.807936754508484
4.001306772232056,0.8781658942,-0.44327038664999996,9.8380901199,0.39466,-0.10206000000000001,0.29918,0.5056495145849544,-0.009773843811168246,0.0006108652381980154,-0.0070249502392771765,24.5,0.9922264141924818,-0.011231008124513508,-0.047973839574417684,0.11427649868509591,-1.9137808815694861,-5.315211567180594,13.228662614630679
4.01634669303894,0.873380249,-0.4283152454,9.8739824589,0.38402000000000003,-0.09926,0.3143,0.5060715344691895,-0.01069014166846527,-0.005803219762881146,-0.008399397025222712,24.5,0.9916843479110554,-0.01996675647009842,-0.045890477792907246,0.11856452585924393,-2.9045573903845816,-4.94980867860721,13.761264705405367
4.030442714691162,0.8895318015499999,-0.42771703974999997,9.843473970749999,0.38626000000000005,-0.11074,0.30534000000000006,0.5046708341087288,-0.010231992739816757,-0.0044287729769356115,-0.00916297857297023,24.5,0.9904221569689882,-0.021385496378386142,-0.047445116224774986,0.12788890677445292,-3.1363029460122203,-5.077977864763957,14.854392437794303
4.045042991638184,0.89551385805,-0.4366901245,9.90808018095,0.38626000000000005,-0.11074,0.30534000000000006,0.5046708341087288,-0.0119118721448613,-0.0054977871437821395,-0.01145372321621279,24.5,0.9907738811027879,-0.01156982521269668,-0.04760002242743223,0.1263625479878209,-2.0116558730703455,-5.2440227281649845,14.628574167319698
4.059352397918701,0.8727820433499999,-0.42771703974999997,9.8560362894,0.38822,-0.11046,0.31402,0.5113948967285458,-0.014049900478554353,-0.0025961772623415654,-0.007483099167925688,24.5,0.9900969946986901,-0.02012956503892295,-0.04593902181705338,0.13111959416676883,-2.986409520516767,-4.9156700337355765,15.215904357521996
4.073545694351196,0.9170492614499998,-0.4235296002,9.8189475391,0.38822,-0.11046,0.31402,0.5113948967285458,-0.012828170002158324,-0.0019853120241435504,-0.008704829644321718,24.5,0.9905127111840019,-0.011675900608328,-0.049767777245550884,0.12755943977589293,-2.062626443122857,-5.486573336481629,14.775306051387384
4.087853193283081,0.8650053699,-0.4474578262,9.82433138995,0.3901800000000001,-0.09926,0.29666000000000003,0.5001001255748694,-0.013133602621257331,-0.0016798794050445422,-0.009315694882519735,24.5,0.9917027777651259,-0.014114954336332123,-0.04462319799782427,0.11972944014511865,-2.2248967872734577,-4.883267388565724,13.863018891077658
4.101896524429321,0.87158563205,-0.44267218099999994,9.8440721764,0.3901800000000001,-0.09926,0.29666000000000003,0.5001001255748694,-0.012522737383059314,-0.0035124751196385882,-0.008552113334772215,24.5,0.9918435371568639,-0.01977988225640761,-0.051425225898088005,0.1149373751197313,-2.940719739932301,-5.593192936616215,13.363879007517742
4.117898464202881,0.8913264184999999,-0.45044885445,9.8548398781,0.3899,-0.10486000000000001,0.29834000000000005,0.502020303573471,-0.014813482026301873,-0.0015271630954950385,-0.009926560120717751,24.5,0.9915287905790049,-0.020336308612243354,-0.043371588847693,0.12073109494156922,-2.9215488413249724,-4.651676328216797,14.003300585385496
4.132009744644165,0.8709874264,-0.43848474145,9.800403163949998,0.3890600000000001,-0.10206000000000001,0.30114,0.5024631596445654,-0.009773843811168246,-0.002138028333693054,-0.00916297857297023,24.5,0.9919445960800373,-0.012561050251787161,-0.04798592764071959,0.11655680620471517,-2.0780345252473786,-5.294247227589041,13.499515762320991
4.146101951599121,0.8638089586000001,-0.4366901245,9.8799645154,0.3890600000000001,-0.10206000000000001,0.30114,0.5024631596445654,-0.011759155835311796,-0.0015271630954950385,-0.0119118721448613,24.5,0.9914136044308451,-0.021012876889419413,-0.04507790810741173,0.12093595889945008,-3.0240867916649137,-4.835731828139235,14.037264580632367
4.160341262817383,0.8925228297999999,-0.41814574934999993,9.8500542329,0.39326000000000005,-0.10094000000000002,0.3038,0.5070865322605206,-0.015577063574049392,-0.00045814892864851157,-0.008093964406123704,24.5,0.9920017101941475,-0.012622740396472475,-0.04745706518957664,0.1162802664271206,-2.0763524526647754,-5.233763788518597,13.466064279214942
4.174931287765503,0.88354974505,-0.43250268495,9.8739824589,0.39326000000000005,-0.10094000000000002,0.3038,0.5070865322605206,-0.01786780821729195,0.001069014166846527,-0.007330382858376185,24.5,0.9914722522223527,-0.021840253138699618,-0.04609107554209765,0.11992242980921355,-3.1279331998437025,-4.942604606000382,13.92832350595937
4.191612005233765,0.8727820433499999,-0.4073780476499999,9.84586679335,0.38430000000000003,-0.10038000000000001,0.29932000000000003,0.497348064035641,-0.009926560120717751,0.0012217304763960308,-0.008704829644321718,24.5,0.9920422376893943,-0.012639535737652788,-0.04657272666600479,0.11629024854840386,-2.066212327812409,-5.132801757360821,13.464372403040418
4.205624341964722,0.8991030919499998,-0.4193421606499999,9.852447055499999,0.38430000000000003,-0.10038000000000001,0.29932000000000003,0.497348064035641,-0.012522737383059314,-0.0016798794050445422,-0.006108652381980154,24.5,0.9912612348158997,-0.021182310642665233,-0.04765253379538583,0.12116810673595191,-3.081551935477931,-5.1255801324539085,14.076063358585563
4.220305442810059,0.8745766602999999,-0.42891345105,9.810572659999998,0.38570000000000004,-0.10178000000000001,0.29722000000000004,0.4974569195417831,-0.012370021073509813,0.0022907446432425577,-0.008857545953871223,24.5,0.9919212981115862,-0.012152271983126085,-0.04678957476928445,0.11728254913320858,-2.018733987496478,-5.162033818316598,13.577443302182873
4.2344582080841064,0.8757730716000001,-0.4390829471,9.859625523299998,0.39130000000000004,-0.10598,0.30296000000000006,0.5060950622165762,-0.008704829644321718,0.001069014166846527,-0.008857545953871223,24.5,0.9911869821348639,-0.02052407884083538,-0.046068830286442736,0.12249404683557087,-2.9903251673912754,-4.9506400307780245,14.219447161394625
4.248486518859863,0.8787640998499999,-0.42053857194999994,9.86740219675,0.39130000000000004,-0.10598,0.30296000000000006,0.5060950622165762,-0.012370021073509813,-0.0006108652381980154,-0.007330382858376185,24.5,0.9916171615246505,-0.011043227221166834,-0.047156892103811875,0.11979014829879064,-1.9104299998695065,-5.214086840532109,13.863224011873944
4.263017416000366,0.8799605111499998,-0.42652062845,9.8739824589,0.39046000000000003,-0.09926,0.30632000000000004,0.5061062157294652,-0.01466076571675237,0.0016798794050445422,-0.010842857978014774,24.5,0.9914578102927039,-0.02105282861913304,-0.046168501432868714,0.12015264579764,-3.0403527867859923,-4.961661503802961,13.951470246481568
4.277240514755249,0.8871389789499998,-0.4199403663,9.84108114815,0.39046000000000003,-0.09926,0.30632000000000004,0.5061062157294652,-0.012980886311707827,0.002138028333693054,-0.008399397025222712,24.5,0.9921195923885189,-0.012535884349634253,-0.047379777926436446,0.11531141593985045,-2.060262452750829,-5.228143866287334,13.353253021316373
4.291598796844482,0.8859425676499999,-0.44207397535,9.88774118885,0.38822,-0.10346000000000001,0.29386,0.49776745534436057,-0.015424347264499889,-0.0022907446432425577,-0.009010262263420728,24.5,0.9913902178535992,-0.020852218373036427,-0.046471362096915145,0.12062766448030902,-3.0241797462696844,-4.997472583581325,14.00675719970486
4.305642127990723,0.9164510557999999,-0.43010986235,9.847661410299999,0.38822,-0.10346000000000001,0.29386,0.49776745534436057,-0.0119118721448613,-0.0009162978572970231,-0.009773843811168246,24.5,0.9917139482704177,-0.01191956473193355,-0.049825922643333846,0.11780809061877283,-2.0370434004549853,-5.509896512494814,13.64714508119516
4.319714307785034,0.8721838377,-0.4283152454,9.91286582615,0.38598000000000005,-0.09954,0.2947000000000001,0.4957185310234025,-0.015882496193148403,-0.0022907446432425577,-0.006108652381980154,24.5,0.9914739533285087,-0.019915748738673345,-0.0445715236047312,0.12081449460585865,-2.89111725507902,-4.7938445746672596,14.015916109652498
4.337498903274536,0.8787640998499999,-0.43489550755,9.9110712092,0.38458000000000003,-0.09982,0.30226000000000003,0.499226317815878,-0.017256942979093935,-0.0033597588100890844,-0.008246680715673207,24.5,0.9920458735664113,-0.011733352321321394,-0.047390389796134254,0.11602354992901315,-1.9725460783108755,-5.23864067273898,13.431560197990324
4.351564884185791,0.8709874264,-0.44446679795,9.8620183459,0.38458000000000003,-0.09982,0.30226000000000003,0.499226317815878,-0.017409659288643436,-0.0016798794050445422,-0.010079276430267254,24.5,0.9915049721389687,-0.02080570104426706,-0.045878489011476224,0.11991737686333541,-3.006856029531536,-4.932816381297191,13.921810439339497
4.366609573364258,0.8751748659499998,-0.4331008906,9.878768104099999,0.38654,-0.10934,0.30184000000000005,0.5024696934144387,-0.008093964406123704,-0.00045814892864851157,-0.007941248096574201,24.5,0.990497937234506,-0.01616542321873791,-0.04659924057992288,0.12837844914050886,-2.5310200634992044,-5.057895463820636,14.881681479433752
4.38104248046875,0.8913264184999999,-0.43848474145,9.87458066455,0.38654,-0.10934,0.30184000000000005,0.5024696934144387,-0.010995574287564279,-0.0025961772623415654,-0.010995574287564279,24.5,0.989403257771654,-0.020433794504540047,-0.05378902111343191,0.13330564414398668,-3.1561163030352395,-5.796192581981782,15.506705950818523
4.395869016647339,0.8853443619999999,-0.43788653580000003,9.8500542329,0.38262000000000007,-0.11270000000000002,0.29414000000000007,0.4955983192061895,-0.014508049407202865,-0.0027488935718910697,-0.009773843811168246,24.5,0.9900220637452324,-0.014420731128685296,-0.04603450905747738,0.1323978088458503,-2.3440332440991956,-5.010126690615992,15.33675504296291
4.410470485687256,0.88833539025,-0.4295116567,9.83390268035,0.38262000000000007,-0.11270000000000002,0.28462,0.49000805993371177,-0.01756237559819294,-0.00045814892864851157,-0.0070249502392771765,24.5,0.988959951504038,-0.021780053547361324,-0.048751941939471764,0.1382284042653146,-3.255553732721126,-5.186975452206039,16.061040484319413
4.424689292907715,0.8781658942,-0.4247260115,9.848259615949999,0.38850000000000007,-0.10598,0.28462,0.4931252932065035,-0.010842857978014774,-0.0015271630954950385,-0.008246680715673207,24.5,0.9899171804337854,-0.013920906972158547,-0.04828371089591061,0.13243438939043337,-2.3223432677287876,-5.273298241947439,15.346905926235703
4.439229249954224,0.8889335959,-0.42891345105,9.8620183459,0.38458000000000003,-0.09786000000000002,0.29456,0.494210430484829,-0.013286318930806834,-0.0009162978572970231,-0.01069014166846527,24.5,0.9910429688854144,-0.00869900635295684,-0.04818118600809908,0.12424465552331719,-1.6814589960669197,-5.355648515293529,14.37015299991518
4.453469753265381,0.7124629291499999,0.005383850849999999,10.01456078665,0.38458000000000003,-0.09786000000000002,0.29456,0.494210430484829,0.0016798794050445422,-0.002901609881440573,-0.006414085001079162,24.5,0.991497320589188,-0.0012717102074482766,-0.04161770950021002,0.12328589649090115,-0.7349514609591852,-4.715845233399004,14.206178171788524
4.468195676803589,0.9403792817999999,3.3726834546999997,9.0424766054,0.37618000000000007,-0.10346000000000001,0.28686,0.48425615494281543,-0.19624045777111243,-0.05345070834232635,-0.10430523942231112,24.5,0.991545119714091,0.007780477248631805,-0.04124408271786598,0.122787073365703,0.30479063960689384,-4.801355710341892,14.105686094719472
4.4823222160339355,2.2390837479499996,2.7792634498999997,9.8010013696,0.37618000000000007,-0.10346000000000001,0.28686,0.48425615494281543,-0.5781839479544216,0.02061670178918302,-0.1029307926363656,24.5,0.9913181668842268,0.014207787803486808,-0.04507891441666404,0.12269605635896574,0.984453260689762,-5.328252815306687,14.065492619669538
4.49630331993103,0.20817556619999997,3.40797758805,8.05603548855,0.50834,-0.04102,0.252,0.5688551625853456,-0.8463537875233503,-0.0012217304763960308,-0.0009162978572970231,24.5,0.9916800937394744,0.01931675502017183,-0.04335694536056203,0.11965629922974831,1.6074505545725883,-5.1989990446313445,13.687133595807069
4.511280059814453,0.30089744194999996,2.7690939538499997,13.124033755349998,0.50834,-0.04102,0.252,0.5688551625853456,-1.16033851995713,-0.07315111227421234,-0.09758572180213296,24.5,0.992293469148359,0.02211082395023711,-0.041325042693849484,0.1147040687861937,1.9789165585388222,-4.995962493320087,13.10132941671879
4.525174140930176,1.77128692965,4.19043057825,9.023932230249999,0.53102,-0.09450000000000001,0.26278,0.5999715149905036,-1.4749341176291082,0.0018325957145940463,-0.10812314716104872,24.5,0.9923415297613308,0.024676606325742707,-0.04345119360466992,0.11296613291387464,2.2536979895346256,-5.267863860646157,12.885262672494374
4.540464401245117,0.6017948838999999,1.0229316615,8.3090764785,0.5394200000000001,-0.01246,0.24808000000000002,0.5938626730145616,-1.7806721693472147,-0.09941831751672701,-0.1624901533606721,24.5,0.9932358419843893,0.023118051353824193,-0.043806114026400486,0.10501972325743882,2.1134512476431437,-5.271501380398901,11.974174302875383
4.556779861450195,-0.6275177268499998,1.1647064005499999,15.062220061349997,0.5394200000000001,-0.01246,0.24808000000000002,0.5938626730145616,-1.9196440110372635,-0.011301006906663285,-0.11239920382843482,24.5,0.9942927997498442,0.017997047224824803,-0.038602868125093705,0.09781489267652603,1.6233060506379287,-4.604997513842388,11.171667967131924
4.572447299957275,0.8261220026499999,-0.1878365741,7.664210787799999,0.41930000000000006,-0.054180000000000006,0.28840000000000005,0.5117836675784018,-2.09603134856694,-0.20525072003453318,-0.06811147405907872,24.5,0.9945599917102662,0.0014866729804542142,-0.04723604084676156,0.0928276313273555,-0.334519257995361,-5.407242753411146,10.68034663951323
4.588853597640991,-0.50787659685,3.1316065777499995,13.2981115995,0.41930000000000006,-0.054180000000000006,0.28840000000000005,0.5117836675784018,-1.8626808275752984,0.04612032548395016,-0.21624629432209744,24.5,0.9950352459628907,0.0007062401203392939,-0.04278020794062886,0.08985663205917864,-0.36129039423627074,-4.891122695768282,10.335625238023457
4.603113651275635,-1.5092728549499999,0.01854437515,8.4239319633,0.33362,-0.07602,0.33292,0.47740660992491507,-2.0821341643979356,-0.1734857276482364,-0.19379699681832038,24.5,0.9953205242665908,-0.01112709973517973,-0.03477836008469649,0.08946344110854171,-1.6295514390345427,-3.85549406533015,10.327200517802558
4.619105339050293,1.8849460031499998,1.9633109432999998,15.850056902399999,0.5150600000000001,0.00602,0.27776000000000006,0.5852124926896213,-1.9839375773576047,0.1269072532356377,-0.14492777776247914,24.5,0.9958071165514565,-0.01274369960796284,-0.036209385716094535,0.08303412028701829,-1.8034508726411844,-4.0139185348150015,9.596221962299582
4.633252382278442,-0.38823546685,3.5377882141,5.164309376449999,0.5150600000000001,0.00602,0.27776000000000006,0.5852124926896213,-2.377182074447577,-0.1075122819228507,-0.21441369860750342,24.5,0.996113116564825,-0.015104880867392378,-0.035323383640250484,0.07926386408507113,-2.050184154625374,-3.897837144482924,9.169010619321424
4.648728370666504,13.572687992849998,-0.50428736295,14.462219794399997,0.37142000000000003,-0.039900000000000005,0.33642,0.5027158668671599,-1.7760906800607297,0.19501872729471642,-0.14202616788103858,24.5,0.9957320829826084,-0.022590207702760375,-0.04490564418682557,0.07740015862534351,-2.988288328698499,-4.929563702811484,9.01820577823829
4.6630284786224365,0.6077769404,0.8961120637,8.364111398299999,0.37142000000000003,-0.039900000000000005,0.33642,0.5027158668671599,-1.4847079614402765,0.8429940287132612,-0.05299255941367784,24.5,0.9962150682816299,-0.020713049539479448,-0.040093489964139126,0.07429010277215921,-2.714906069028302,-4.404993760693132,8.634008768032096
4.6788177490234375,-2.4143580034,3.0394829076499996,5.1625147595,0.52822,0.03318,0.26502000000000003,0.5919061422218899,-0.9616546012332257,0.5879577917655898,0.4482223685277938,24.5,0.9966072016095797,-0.018428670359904302,-0.031293440087088974,0.0738592608696046,-2.3743684716716187,-3.4198541043073467,8.547855604198002
4.69425630569458,7.34775999895,0.20398812665,13.5900359567,0.33586,0.01862,0.32130000000000003,0.4651691455804007,-0.9761626506404286,0.9596692892090822,0.20128009598624608,24.5,0.9965924765448098,-0.019423131470043185,-0.0354788736581956,0.07188481885715553,-2.517016746832009,-3.8947286234350296,8.336863249025207
4.708829402923584,-1.2131610581999999,4.08394997255,10.134800122299998,0.33586,0.01862,0.32130000000000003,0.4651691455804007,-0.969901281948899,0.17501289074373141,0.13881912538049898,24.5,0.9969244367233268,-0.015347485320911567,-0.03128926572837802,0.0701933330764461,-2.009018901284844,-3.4530999077409685,8.115648933414118
4.722920894622803,-0.26021945775,3.9511483182499996,8.32881726495,0.44114000000000003,0.030940000000000002,0.31962,0.5456360761533278,-1.1768318813884766,0.05009094953223726,0.2107485071783153,24.5,0.9971523585846852,-0.011868597913880249,-0.029404663803734167,0.06842277324946287,-1.5895099757325812,-3.268645983943663,7.8961121292674505
4.736913681030273,1.0779665813,1.48175539505,6.504290032449999,0.44114000000000003,0.030940000000000002,0.31962,0.5456360761533278,-0.7615962357233756,-0.007330382858376185,0.02932153143350474,24.5,0.9973782977483915,-0.0066370895688705744,-0.03171036294530447,0.06470651516232893,-0.9956772335957318,-3.577324288924051,7.455000968789401
4.751929044723511,-0.05204389154999999,2.46999112885,11.6853491671,0.32970000000000005,0.01414,0.31976000000000004,0.45950896313347367,-0.5126686511576843,-0.06902777191637574,0.05818491393836096,24.5,0.9976285418977527,6.081893433954234e-05,-0.029754408028755615,0.06206419172823698,-0.20502366064959568,-3.403952878820259,7.125854772068145
4.766187906265259,-0.21954147355,2.09910362585,6.6807606991999995,0.32970000000000005,0.01414,0.31976000000000004,0.45950896313347367,-0.6533203722527775,-0.1105666081138408,0.009621127501618741,24.5,0.9978028164593374,0.006205456400281493,-0.027835770650127666,0.05980135156492213,0.5196105134125144,-3.226965978966484,6.844978138834875
4.78032660484314,1.13599252935,2.3060827807499997,8.756534304699999,0.4151,0.06482,0.30002000000000006,0.5162573416427122,-0.3872885610175417,-0.14966198335851377,-0.06291911953439559,24.5,0.9979391215967893,0.013336634781463373,-0.0298011955041365,0.05524067799962863,1.3390827120861564,-3.4945161893229817,6.295870620264898
4.794804096221924,-0.0502492746,2.89112790645,8.6237326504,0.42826000000000003,0.05278000000000001,0.30786,0.5300661615308037,-0.04550946024575215,-0.0554360203664699,-0.31658090969612146,24.5,0.9980887812994464,0.022378990861603155,-0.028113018528527836,0.05027547713763123,2.4023775623575823,-3.3461880897010308,5.697120631018014
4.808959007263184,2.4777678023,4.856233466699999,11.520842613349998,0.42826000000000003,0.05278000000000001,0.30786,0.5300661615308037,-0.20128009598624608,-0.22067506729903305,-0.20357084062948863,24.5,0.9979381926264439,0.030736310683482065,-0.03179124469698678,0.04651837984766426,3.3546888188328743,-3.802130411359367,5.226382440561868
4.825468063354492,-0.5048855686,3.337987527,6.111268920399999,0.3899,0.13174,0.32788000000000006,0.5261964766130613,0.030085112981252257,-0.0870482964432172,-0.2504547476611863,24.5,0.997884249640928,0.03998565980518018,-0.029588518197547868,0.04186515161061574,4.443480474823731,-3.5775719582525283,4.665905937094849
4.840074300765991,-0.9146564388499998,2.6344976825999997,11.60818063825,0.3899,0.13174,0.32788000000000006,0.5261964766130613,0.3149010302910769,-0.39553524173321497,-0.16111570657472657,24.5,0.9977543605577519,0.04933979404426138,-0.027491671855502817,0.036000398473499604,5.545925470216469,-3.348688718895485,3.9705934947582993
4.854562282562256,1.3411770672999999,2.8582265956999997,9.81834933345,0.45878,0.07938,0.28868,0.547828819249225,0.3051271864799087,-0.3837760858979032,-0.36346481672781916,24.5,0.9972626645292189,0.05978572577420952,-0.03146702339669594,0.030044489815699613,6.754334606318108,-3.804613185924366,3.226654670572394
4.868728399276733,1.0552347666,2.8965117572999994,6.689135578299999,0.45878,0.07938,0.28868,0.547828819249225,0.5224424949688526,-0.39019017089898234,-0.297338654692884,24.5,0.9964687124786598,0.07178319524129995,-0.03518692715982074,0.02567407426024952,8.142698743749023,-4.232924238837787,2.6503763804299028
4.8834497928619385,0.42592242280000003,2.77268318775,8.774480474199999,0.34202000000000005,0.0071400000000000005,0.32942,0.4749170415977932,0.7067710805951039,-0.47051894972202135,-0.38652497946979425,24.5,0.9954659118207261,0.08472274327392197,-0.03468946221040179,0.025813104939636868,9.633090704836992,-4.211494191105596,2.615738425190189
4.899229288101196,-0.30209385325,4.536193443949999,9.1094756382,0.41538,0.04718000000000001,0.30996,0.5204245367005672,0.6745479392801585,-0.3891211567321358,-0.5400048705670456,24.5,0.9944437908534598,0.0974908912773565,-0.03312191932695652,0.021909162718950083,11.123376636547672,-4.022468454936242,2.1323735928495284
4.913556814193726,3.0891339766,5.3736813539499995,8.2636128491,0.41538,0.04718000000000001,0.30996,0.5204245367005672,0.7673994554862569,-0.4114177379263634,-0.4353941985256355,24.5,0.9929656561285733,0.10961558580707725,-0.04011688896606018,0.019856090174250586,12.524833844829113,-4.81981485320283,1.7619328650703752
4.93133020401001,-0.21595223965000002,6.9122662857499995,7.587640464599999,0.37450000000000006,0.022820000000000003,0.31332000000000004,0.4888153279102447,0.7562511648891431,-0.49861875067913003,-0.4766276021040015,24.5,0.9914449861266833,0.12297526454688051,-0.03995687301440029,0.017814940156968138,14.079891293033791,-4.796195603834162,1.4662013442366906
4.946595191955566,-0.43968115274999997,4.210769570349999,6.76391128455,0.37450000000000006,0.022820000000000003,0.2835,0.47025870794701935,0.8700248155035234,-0.7370089098859056,-0.29489519374009193,24.5,0.9898401647302533,0.1358131938245888,-0.03843316487830767,0.01714982528734376,15.570560682386084,-4.631316375292561,1.3516600267486956
4.963734149932861,-0.5754738353000001,3.0346972624499995,14.0434758394,0.41678000000000004,0.06762,0.2835,0.5085767226289462,0.9080511765813498,-0.4512766947187839,-0.3271183350550373,24.5,0.9900989741095024,0.13596859680553347,-0.031684005922867346,0.014583755302553274,15.599985255067375,-3.8248393233045763,1.1636367012344317
4.978405475616455,0.15912270289999997,4.983651270149999,6.493522330749999,0.31234,-0.020300000000000002,0.33866,0.46114960826178747,1.014494444337354,-0.5842926003364017,-0.416762808760596,24.5,0.9882534589321014,0.14871981221647,-0.030679966914378954,0.017212146675175476,17.06910624323577,-3.7704190272111955,1.4295914455877408
4.992405891418457,1.52004055665,4.601996065449999,12.84048427725,0.31234,-0.020300000000000002,0.33866,0.46114960826178747,1.0593930393449082,-0.6638577976116932,-0.3504839304161113,24.5,0.9881328639892448,0.1482535411913044,-0.032892951190167455,0.02307345640886715,16.991251690640258,-4.120059907704777,2.059606071463719
5.006727457046509,-1.3172488412999999,4.56730013775,9.537790883599998,0.50134,0.05138,0.28364000000000006,0.5783021265739907,0.9575312608753891,-0.61559944379405,-0.4618141200776996,24.5,0.9867737795551419,0.1585432517403265,-0.027184032598782642,0.02006423887746594,18.201800157613803,-3.4404487813459057,1.778401160382855
5.020723581314087,3.1878379088499997,0.9589236569499999,6.867400861999999,0.50134,0.05138,0.28364000000000006,0.5783021265739907,0.9433286440872853,-0.4604396732917541,-0.2965750731451365,24.5,0.9863476028651547,0.15893981757539793,-0.037754374233242446,0.020764102136107257,18.24026454699713,-4.650552483195487,1.6649951013815008
5.035237073898315,-2.82412887365,5.225924558399999,14.793625724499998,0.45570000000000005,-0.026180000000000002,0.29540000000000005,0.5436994044506579,0.8642215957406423,-0.495258991869041,-0.36239580256097265,24.5,0.9862484144812559,0.16081088697785492,-0.030933984757509834,0.022293769300560446,18.454801988736232,-3.909881126090816,1.954435736597128
5.049193382263184,-0.8327022647999999,3.2105697235499995,6.290132409749999,0.46690000000000004,0.03794,0.28476000000000007,0.5482000649397992,0.72952581071798,-0.5109887717526399,-0.33811390934260155,24.5,0.9850437435506574,0.16921899841903817,-0.024425665744839543,0.021380849344349823,19.441371446850482,-3.1733325723893646,1.94313271675895
5.063184976577759,0.008973084749999999,1.4350953543499998,8.641080614249999,0.46690000000000004,0.03794,0.28476000000000007,0.5482000649397992,0.7896960366804844,-0.6798930101143912,-0.22999076218155282,24.5,0.9858100665884472,0.16450966261955086,-0.02486670242593234,0.022287454501198702,18.890270199511114,-3.2309419905425925,2.0526421832663964
5.077504634857178,0.83210405915,4.332803522949999,9.665208687049999,0.44254000000000004,0.04718000000000001,0.29764,0.5354037482125056,0.7396050871482471,-0.5850561818841492,-0.22418754241867164,24.5,0.9838105674528881,0.17471679826801456,-0.028629895454961352,0.027769351041005582,20.055788274429595,-3.78635842619793,2.5638651866134454
5.091517925262451,0.9672985360499999,4.378865358,8.91146956805,0.44254000000000004,0.04718000000000001,0.29764,0.5354037482125056,0.534659799732813,-0.5230533602070507,0.019700403931885997,24.5,0.9817541782613026,0.18420963635589238,-0.03284845211840794,0.03386033865053321,21.133504634361174,-4.414595338372323,3.126743149808665
5.106890439987183,2.2971096959999997,2.9742784917999994,8.635098557749998,0.55342,-0.04802,0.31514000000000003,0.6386648858360697,0.5807801252167631,-0.6207917983187331,0.04948008429403925,24.5,0.9815114598694454,0.18252325685300394,-0.04024662363255512,0.04123983679528527,20.888996612324544,-5.397190930567009,3.8163099757201424
5.121536731719971,1.2502498084999998,3.3774690999,13.267603111349997,0.55342,-0.04802,0.31514000000000003,0.6386648858360697,0.4427245813840116,-0.1707368340763453,-0.1458440756197762,24.5,0.9822446424373529,0.17744881513681965,-0.03924867631915083,0.04655020748450167,20.271191396389497,-5.37213717596619,4.465575534025657
5.136929512023926,0.51026941945,3.7782668854,3.5928231338999996,0.61194,0.006300000000000001,0.28812,0.676404751609567,0.3497203488683638,-0.1658499121707612,-0.09758572180213296,24.5,0.9801646602613465,0.18843585965939974,-0.03956509003588579,0.04694432041934717,21.552396231654253,-5.465858243408183,4.4430179778169805
5.151008129119873,0.8548358738499999,3.9326039431,11.257033921699998,0.37646,-0.05586000000000001,0.33334,0.5059229455164097,0.20815232991597374,-0.20601430158228068,-0.04657847441259867,24.5,0.980951084167418,0.18311269680514106,-0.03719741506840412,0.05311368045752808,20.905353883840753,-5.303376582312125,5.219449122424446
5.165629148483276,-0.7010970218,1.41714918485,7.948956677199999,0.37646,-0.05586000000000001,0.33334,0.5059229455164097,-0.016340645121796914,-0.20693059943957773,-0.08750644537186571,24.5,0.9822427281898016,0.17588893983373546,-0.03310526350415856,0.05627028781462066,20.062322717258528,-4.866217723027955,5.69622711784546
