timestamp,accel_x,accel_y,accel_z,mag_x,mag_y,mag_z,mag_magnitude,gyro_x,gyro_y,gyro_z,temperature,quat_w,quat_x,quat_y,quat_z,roll,pitch,yaw
0.003743886947631836,-0.11724830739999999,1.5332010809499996,-1.71744842115,0.10038000000000001,-0.15666000000000002,0.3178,0.36825988106227375,5.003444449770395,5.003444449770395,2.5992315885325556,22.5,0.9983507950465205,0.03833653546252892,0.03625895918477799,0.022611677459826025,4.49558740484306,4.052161370463042,2.754063845727598
0.017519235610961914,-0.01854437515,0.48095734259999995,9.821938567349997,0.10038000000000001,-0.15666000000000002,0.3178,0.36825988106227375,-0.2464841236128992,-0.24205535063596362,-0.16539176324211266,22.5,0.9984451377109703,0.020833635488086456,0.040605124909595,0.03200766228182203,2.5415042794300984,4.574213530848971,3.77378325475068
0.03142070770263672,0.00418743955,0.47377887479999997,9.835697297299998,0.10682000000000001,-0.15862,0.31276000000000004,0.366591918077854,0.031459559767197796,0.03497203488683638,-0.010842857978014774,22.5,0.9980363578139431,0.0049473720306843615,0.04529128106809313,0.04298432098660988,0.7921407432778204,5.162420352252495,4.967994566995192
0.04685473442077637,-0.040677984199999996,0.44685962055,9.9601240725,0.10682000000000001,-0.15862,0.31276000000000004,0.366591918077854,0.02138028333693054,0.025503623694767143,-0.018784106074588976,22.5,0.9972504678916521,-0.01077614411132736,0.049144026492134334,0.05440812134335737,-0.9296864261790746,5.69255354431418,6.199486211168617
0.0613245964050293,-0.1004985492,0.37926238209999996,9.9218389109,0.10430000000000002,-0.15778,0.31752,0.3695835072077757,0.02061670178918302,0.015118914645400881,-0.02290744643242558,22.5,0.9960974568841948,-0.02629077263279763,0.05216233492264209,0.06616451071857618,-2.6215256164865326,6.16526089895829,7.459229894049809
0.0755770206451416,-0.11724830739999999,0.37268211995,9.932008406949999,0.10430000000000002,-0.15778,0.31752,0.3695835072077757,0.028710666195306725,0.005803219762881146,-0.015118914645400881,22.5,0.9945749884605255,-0.040946751274915774,0.053889123268682,0.07899315338754537,-4.2099410344554045,6.526490398881977,8.842116058145455
0.08976006507873535,-0.0897308475,0.40438701939999994,9.86740219675,0.0959,-0.15554,0.30870000000000003,0.3587271826890179,0.017409659288643436,0.0033597588100890844,-0.009773843811168246,22.5,0.9926783947656238,-0.054211837567643695,0.054409506842536676,0.09322170776292066,-5.6339696698768,6.784175901745633,10.39553518612367
0.10383129119873047,-0.07716852884999999,0.42652062845,9.914062237449999,0.0959,-0.15554,0.30870000000000003,0.3587271826890179,0.012217304763960308,0.01664607774089592,-0.01114829059711378,22.5,0.9904799982152134,-0.0646521538154148,0.05289009505237248,0.10941713754238713,-6.738137356566065,6.8298500899016075,12.205129661906629
0.11878633499145508,-0.031106693799999998,0.45702911659999995,9.9565348386,0.10654000000000001,-0.16114,0.31822,0.37226447533977775,-0.008399397025222712,0.02489275845656913,-0.020311269170084013,22.5,0.9882259458176422,-0.06955907840031152,0.04818196176710776,0.1274735783807725,-7.238672240774926,6.486160524868355,14.28955023292313
0.1326274871826172,-0.017946169499999998,0.45284167705,9.798608546999999,0.10402000000000002,-0.16534000000000001,0.31850000000000006,0.3736304671731148,-0.024434609527920616,0.02504547476611863,-0.0316122760767473,22.5,0.9856903177473453,-0.07156352857077726,0.04427046549355301,0.14605952472407005,-7.406216200769882,6.210353999692316,16.45516580743157
0.1466212272644043,0.022133609050000003,0.3900300838,9.88295554365,0.10402000000000002,-0.16534000000000001,0.31850000000000006,0.3736304671731148,-0.03359758810089085,0.008704829644321718,-0.03695734691097993,22.5,0.9830136910247109,-0.07116870301999022,0.03960494737390337,0.1644705052948306,-7.327906980620617,5.812579017147234,18.62411794436882
0.16059446334838867,-0.010169496049999999,0.37268211995,9.890732217099998,0.10962000000000001,-0.16254000000000002,0.30856,0.36557498492101453,-0.04489859500755413,-0.009621127501618741,-0.03512475119638588,22.5,0.9801561145224429,-0.0680751513331373,0.035747337819584585,0.182707122942841,-6.945914216805521,5.448532583007001,20.787283285195667
0.17499327659606934,0.0023928226,0.38943187814999997,9.94277610865,0.10962000000000001,-0.16254000000000002,0.30856,0.36557498492101453,-0.04214970143566306,-0.01664607774089592,-0.02061670178918302,22.5,0.9770124430518191,-0.06377580755014514,0.03286430672797177,0.2007467803889577,-6.423524572846816,5.153438836312656,22.932559658962525
0.1895127296447754,-0.041874395499999995,0.42592242280000003,9.89970530185,0.10430000000000002,-0.16086,0.31934,0.3724680727257036,-0.041080687268816536,-0.013286318930806834,-0.015118914645400881,22.5,0.9736295154586723,-0.057837467157982214,0.03196523147216959,0.2183543404592428,-5.684176811003095,5.019955980949521,25.031587246071695
0.20338797569274902,-0.0526420972,0.4211367776,9.88415195495,0.10430000000000002,-0.16086,0.31934,0.3724680727257036,-0.038179077387375956,-0.0009162978572970231,-0.013744467859455347,22.5,0.969780110852306,-0.05322938113258035,0.03183647598926229,0.23596526942776277,-5.080294990665943,4.983527450446816,27.129513457704604
0.21843218803405762,-0.027517459899999996,0.40079778549999995,9.90688376965,0.10682000000000001,-0.16422000000000003,0.31346,0.36964292553760586,-0.03726277953007894,0.011301006906663285,-0.02138028333693054,22.5,0.9655090031165299,-0.05049027094103769,0.03144558465102405,0.25348426508795463,-4.695558100946834,4.951875000072981,29.217693629102172
0.23259687423706055,-0.0394815729,0.3529413335,9.909276592249999,0.10486000000000001,-0.1673,0.32172,0.377476711864454,-0.03313943917224234,0.002138028333693054,-0.018020524526841455,22.5,0.9609276876600231,-0.04831061410987866,0.031095188473011633,0.27077140341349754,-4.375275480334798,4.929087000636994,31.285274579915576
0.2481069564819336,0.008973084749999999,0.37268211995,9.909276592249999,0.10486000000000001,-0.1673,0.32172,0.377476711864454,-0.029626964052603746,-0.005803219762881146,-0.008857545953871223,22.5,0.9563495653779746,-0.04354593901250756,0.029066100466530916,0.28749682050511044,-3.8299203825638912,4.624971235905179,33.3088305613089
0.2620558738708496,-0.005383850849999999,0.44087756405,9.89970530185,0.10822000000000001,-0.15974000000000002,0.31276000000000004,0.3674877597961598,-0.031154127148098783,-0.012828170002158324,-0.0119118721448613,22.5,0.9521367688961887,-0.0341831547524514,0.0267287630539539,0.30257669849593705,-2.811193529236772,4.105025344537487,35.158392454503165
0.27596473693847656,-0.07716852884999999,0.46301117309999995,9.936195846499999,0.10822000000000001,-0.15974000000000002,0.31276000000000004,0.3674877597961598,-0.03054326190990077,-0.008552113334772215,-0.016951510359994926,22.5,0.9470199016656866,-0.02935455414366422,0.028310216029969405,0.3185751836984111,-2.158238022004532,4.147477686024229,37.10746991478896
0.2917673587799072,-0.11784651304999999,0.44566320924999997,9.889535805799998,0.10458,-0.16254000000000002,0.31234,0.36730437459959553,-0.025350907385217638,-0.007635815477475193,-0.02932153143350474,22.5,0.9414853037678665,-0.02817633164913507,0.030751486939291924,0.3344635453602504,-1.8670732196038475,4.401898045947812,39.043497543692816
0.3056631088256836,-0.030508488149999995,0.3900300838,9.917651471349998,0.10458,-0.16254000000000002,0.31234,0.36730437459959553,-0.028099800957108706,-0.004123340357836604,-0.029626964052603746,22.5,0.9360449466436197,-0.02440619599277105,0.027436173523108568,0.34995921454151707,-1.5213686561341628,3.924696965608322,40.94640438764378
0.3206825256347656,-0.13998012209999997,0.4073780476499999,9.864411168499998,0.10934,-0.15862,0.31542000000000003,0.36960156439062863,-0.03054326190990077,0.0012217304763960308,-0.018020524526841455,22.5,0.930823479028014,-0.015677717362274256,0.02668115425347224,0.36415652688946193,-0.5599258262448313,3.5023326437791256,42.71571833717646
0.3345766067504883,-0.008973084749999999,0.46959143524999997,9.86500937415,0.10822000000000001,-0.15806,0.31570000000000004,0.3692709330559339,-0.03604104905368291,0.008399397025222712,-0.009926560120717751,22.5,0.925233923773327,-0.009142857879520759,0.02321969882303109,0.378575540725198,0.037991759953342696,2.859663866610915,44.506502074816105
0.35073184967041016,-0.09631110964999999,0.4677968183,9.81356368825,0.10822000000000001,-0.15806,0.31570000000000004,0.3692709330559339,-0.0357356164345839,0.02336559536107409,-0.014355333097653362,22.5,0.9189917936729305,-0.007527481706406064,0.025913400604290274,0.3933521524665796,0.37587497746204174,3.069674909878997,46.354414838421675
0.3647902011871338,-0.06161518194999999,0.4875376047499999,9.81834933345,0.11046,-0.15862,0.31374,0.36850305778921294,-0.03741549583962844,0.031764992386296806,-0.03375030441044035,22.5,0.9134969550141981,0.0014464072464425413,0.022056449148489032,0.40624467274885645,1.1791708739314741,2.242086646591861,47.97382218255622
0.3790287971496582,-0.03649054465,0.50787659685,9.848259615949999,0.11046,-0.15862,0.31374,0.36850305778921294,-0.04459316238845512,0.023671027980173096,-0.0355829001250344,22.5,0.906965869495679,0.0026901624926382647,0.022078011725358337,0.42061649515201505,1.344814311135327,2.1654337970159205,49.785593763356765
0.393160343170166,-0.021535403399999997,0.5252245607,9.810572659999998,0.10654000000000001,-0.16226000000000002,0.32480000000000003,0.37838356095369685,-0.04001167310197001,0.009010262263420728,-0.03054326190990077,22.5,0.9002890167640739,0.004813016011688163,0.022023099856223242,0.4347085279167764,1.5948037454427157,2.03269573659952,51.57585191578193
0.4071965217590332,-0.007178467799999999,0.5204389155,9.8321080634,0.10654000000000001,-0.16226000000000002,0.32480000000000003,0.37838356095369685,-0.0319177086958463,0.0070249502392771765,-0.027488935718910694,22.5,0.8939726588293267,0.011379633645882856,0.017949884605873028,0.4476172369852905,2.0874180428821614,1.2552201342524807,53.21764981823121
0.42153477668762207,-0.08614161359999999,0.52821558895,9.822536773,0.10906000000000002,-0.16282000000000002,0.31402,0.37015266634187577,-0.028710666195306725,0.006414085001079162,-0.016951510359994926,22.5,0.8873705072707733,0.009867264051773001,0.024768891650568906,0.46028547873308534,2.3118185761753347,1.9985870555308838,54.87252015463705
0.436093807220459,-0.07178467799999999,0.48035913694999993,9.774680320999998,0.11494000000000001,-0.15834,0.31416000000000005,0.3701070990943027,-0.03527746750593539,0.026725354171163174,-0.025809056313866152,22.5,0.8887740268591099,0.024578071983219468,0.01213945100470766,0.45752517011366073,3.1412064965332274,-0.052237464593909995,54.47578699299322
0.4506998062133789,-0.014356935599999999,0.5024927459999999,9.812965482600001,0.11494000000000001,-0.15834,0.31416000000000005,0.3701070990943027,-0.04276056667386108,0.041691552507014555,-0.04153883619746505,22.5,0.8849241252939203,0.009375478788660598,0.019116579489069283,0.4652482662610486,1.970901059425587,1.4388249980799948,55.490989075122826
0.46550583839416504,0.0167497582,0.50189454035,9.87458066455,0.11298,-0.16226000000000002,0.29946000000000006,0.35884408814971447,-0.04917465167494024,0.04276056667386108,-0.04520402762665314,22.5,0.885317662657783,0.026254539563371947,0.009060743541931704,0.4641564803651271,3.147139219738047,-0.47723104765897867,55.32135448115731
0.47958827018737793,0.0693918554,0.53898329065,9.9684989516,0.11298,-0.16226000000000002,0.29946000000000006,0.35884408814971447,-0.038942658935123484,0.03665191429188092,-0.039553524173321496,22.5,0.8809129128560826,0.012668932998678524,0.016768513916137463,0.4728115428382972,2.1882587998949146,1.006346991745504,56.46671446231061
0.4939992427825928,0.0029910282499999996,0.5156532703,9.9086783866,0.10598,-0.16002000000000002,0.32746000000000003,0.37956318630762914,-0.03604104905368291,0.022754730122876075,-0.036499197982331415,22.5,0.8789227293068248,0.030261161074329114,0.009304182496750482,0.47591231358974356,3.5577871186174024,-0.7132364792049524,56.84648408612664
0.5080454349517822,-0.0047856452,0.5252245607,9.918249676999999,0.10598,-0.16002000000000002,0.32746000000000003,0.37956318630762914,-0.03634648167278191,0.02489275845656913,-0.03252857393404432,22.5,0.8758460780053706,0.014488261199641764,0.01806453710896275,0.48203465687547825,2.453073257275099,1.0128026248209936,57.67534247376278
0.5223829746246338,0.02691925425,0.4881358103999999,9.9170532657,0.11018,-0.1589,0.31374,0.368539862158763,-0.03802636107782646,0.021227567027381034,-0.03054326190990077,22.5,0.8778718090485848,0.029360082268093175,0.006276502728975183,0.4779536357853857,3.299590627693457,-0.9766874674420101,57.10366351197329
0.5363447666168213,0.04486542375,0.49292145559999995,9.9696953629,0.11018,-0.1589,0.31374,0.368539862158763,-0.025656340004316647,0.020922134408282028,-0.029626964052603746,22.5,0.8751568900973572,0.013258193292728235,0.015332565140186981,0.48341447068944554,2.179696412651797,0.8032211817801691,57.84557482055745
0.5507831573486328,-0.0,0.48275195955,9.945767136899999,0.10822000000000001,-0.15722000000000003,0.31346,0.3669970959013164,-0.01664607774089592,0.015729779883598898,-0.024434609527920616,22.5,0.8772645568653324,0.03026996726883801,0.007012157294603455,0.4790004759908814,3.430372494526299,-0.9566331996373498,57.24184543789354
0.5646145343780518,0.0382851616,0.4211367776,9.936794052149999,0.10262,-0.15582000000000001,0.32088000000000005,0.3711801600301396,-0.018784106074588976,0.0044287729769356115,-0.019242255003237483,22.5,0.8744835783443472,0.01314810255395583,0.01358671118424969,0.4846864964948916,2.0727479239323903,0.6312573392546039,58.00664146484529
0.578650712966919,0.09152546445000001,0.37028929735,9.8991070962,0.10262,-0.15582000000000001,0.32088000000000005,0.3711801600301396,-0.028405233576207715,-0.004276056667386108,-0.025350907385217638,22.5,0.8750463784403637,0.02475990818085139,-0.002611355356591809,0.4833983485165015,2.3396975993367075,-1.633604337121285,57.801440263076294
0.5925872325897217,0.07477570624999999,0.45343988269999996,9.857830906349998,0.11046,-0.15778,0.31598000000000004,0.37005310483767057,-0.05314527572322734,-0.0033597588100890844,-0.024740042147019626,22.5,0.8732160539845495,0.014901170626043589,0.013911314477625752,0.4869067195132254,2.2679467393892425,0.5606026575552066,58.299316770971856
0.6066522598266602,-0.020937197749999997,0.5156532703,9.846464998999998,0.11046,-0.15778,0.31598000000000004,0.37005310483767057,-0.0595593607243065,0.005192354524683131,-0.014355333097653362,22.5,0.8759225455168461,0.032351845435302264,0.008789815217045483,0.48128556128422273,3.7351394431508917,-0.9020193659554104,57.54477238867906
0.6227390766143799,-0.05503491979999999,0.50189454035,9.8763752815,0.10486000000000001,-0.15442000000000003,0.32102,0.37134215543081023,-0.04856378643674222,0.012828170002158324,-0.008093964406123704,22.5,0.8737188723916025,0.01556885162406094,0.017867896094316417,0.4858535593931749,2.5547332960698816,0.9221966010024935,58.17528078745877
0.6364891529083252,0.0023928226,0.42891345105,9.870991430649998,0.10486000000000001,-0.15442000000000003,0.32102,0.37134215543081023,-0.0316122760767473,0.013439035240356337,-0.007941248096574201,22.5,0.8758141192466307,0.027384737477092674,0.0029951354922270112,0.4818617372700831,2.9156501130894923,-1.2116067166200768,57.60722189423565
0.6517794132232666,-0.011365907350000001,0.36670006345,9.80638522045,0.10346000000000001,-0.15694000000000002,0.31164000000000003,0.36394178765291574,-0.021991148575128558,-0.00045814892864851157,-0.014508049407202865,22.5,0.87338875703224,0.0111764313191506,0.012453825541279766,0.48673613868505233,1.8136033347695002,0.6230532533412672,58.271367620668734
0.6667921543121338,0.0382851616,0.37447673689999994,9.7962157244,0.10570000000000002,-0.1589,0.31752,0.37046005236732343,-0.019394971312786988,-0.021838432265579053,-0.019394971312786988,22.5,0.8752426292421085,0.02713305550162434,0.0015335668631590138,0.4829200611169337,2.808087169259171,-1.3478188684110013,57.742894679128625
0.6813178062438965,0.04606183504999999,0.46301117309999995,9.83390268035,0.10570000000000002,-0.1589,0.31752,0.37046005236732343,-0.010537425358915765,-0.025198191075668133,-0.020158552860534508,22.5,0.8724821455874625,0.013535060120274493,0.01370261997915891,0.4882662654580443,2.120506174852433,0.6126843874522947,58.47661801446054
0.6956584453582764,0.005982056499999999,0.49052863299999994,9.9098747979,0.10514000000000001,-0.1589,0.31234,0.36586869939911504,-0.0024434609527920616,-0.014049900478554353,-0.015118914645400881,23.5,0.8740100843626842,0.03206787424673713,0.007623050428743618,0.4847885239728659,3.638230792531871,-1.0180293378430916,57.99943686721415
0.7101230621337891,0.0095712904,0.46061835049999994,9.871589636299998,0.10514000000000001,-0.1589,0.31234,0.36586869939911504,0.003207042500539581,0.006414085001079162,0.0013744467859455349,22.5,0.8714846232337522,0.014986854964076823,0.015061849837210445,0.48996233153671337,2.3431245570737786,0.6627179458746594,58.70430856006754
0.7244901657104492,0.020338992099999998,0.46600220135,9.931410201299999,0.11242000000000002,-0.15050000000000002,0.31892000000000004,0.37013304743024505,-0.015882496193148403,0.028099800957108706,0.010384709049366262,22.5,0.8748212822035407,0.029988471806116086,0.006241508146052171,0.4834764310062585,3.3545163156413293,-1.0357939614211835,57.82478486084791
0.7386281490325928,0.07178467799999999,0.45643091095,9.851848849849999,0.11242000000000002,-0.15050000000000002,0.31892000000000004,0.37013304743024505,-0.02977968036215325,0.027183503099811684,0.02138028333693054,22.5,0.8756246940051842,0.010266737319752188,0.010193252448436309,0.482775400116511,1.5943231256817791,0.45481126447510456,57.74659097991247
0.7530698776245117,0.0394815729,0.4911268386499999,9.931410201299999,0.10486000000000001,-0.15582000000000001,0.31920000000000004,0.37035676313522353,-0.053603424651875856,-0.002901609881440573,0.03436116964863837,22.5,0.8764119821477248,0.029714836109986792,0.00796504792990898,0.4805784265594192,3.425285417038461,-0.8365075028106349,57.45110075105616
0.7670104503631592,0.007178467799999999,0.5599204883999999,9.909276592249999,0.10990000000000001,-0.15554,0.32312,0.3750696415334091,-0.04214970143566306,-0.029626964052603746,0.052839843104128335,22.5,0.8740066676395974,0.015121532041364695,0.019826990028591247,0.48527371107103523,2.6184573029817786,1.1449420741364293,58.10676333922933
0.7815406322479248,-0.04307080679999999,0.52462635505,9.88893760015,0.10990000000000001,-0.15554,0.32312,0.3750696415334091,-0.031154127148098783,-0.047952921198544204,0.07437284275060838,22.5,0.8765097249849153,0.030796165414558332,0.009855174614264094,0.4802969641127765,3.6383146815063916,-0.7051166624503065,57.42003406179995
0.7956910133361816,0.013758729949999998,0.5210371211499999,9.8141618939,0.09898,-0.15722000000000003,0.3269,0.37600369519460847,-0.03604104905368291,-0.027947084647559205,0.07055493501187078,22.5,0.8730011866796139,0.015089090952152853,0.017751588931098832,0.4871612961644684,2.501592556034761,0.9335427729818879,58.346083753721075
0.8097918033599854,-0.020338992099999998,0.5144568589999999,9.798010341349999,0.09898,-0.15722000000000003,0.3269,0.37600369519460847,-0.038637226316024474,0.0025961772623415654,0.048258353817643214,22.5,0.8712116307696355,0.032062030992577185,0.008162780825166012,0.4897914756195165,3.662041884424533,-0.9846420448035724,58.657540961050124
0.8238441944122314,-0.0191425808,0.47736810869999996,9.775876732299999,0.11158000000000001,-0.15918000000000002,0.32228,0.3763678615397441,-0.04230241774521256,0.03481931857728687,0.029932396671702752,22.5,0.8703718410092375,0.013675985739743391,0.016257215554576945,0.4919365088450428,2.2813074885545674,0.8505419304998637,58.96743681599382
0.8383269309997559,-0.07537391189999999,0.50069812905,9.83150985775,0.11158000000000001,-0.15918000000000002,0.32228,0.3763678615397441,-0.025503623694767143,0.051770828937281806,0.00916297857297023,22.5,0.8736724831257122,0.030040021485997652,0.010500136213994753,0.4854726938536919,3.594172379652048,-0.6199444180011283,58.09968821974499
0.8528103828430176,0.00059820565,0.51026941945,9.870393224999999,0.11186000000000001,-0.15722000000000003,0.32942,0.3817699888676427,-0.0016798794050445422,0.06688974358268268,-0.011606439525762293,22.5,0.8728644603545165,0.011053431537727658,0.0169687630787214,0.4875423228611418,2.0544160457787495,1.0797930890911875,58.39083356280071
0.8677546977996826,0.022731814700000002,0.5371886737,9.914062237449999,0.11186000000000001,-0.15722000000000003,0.32942,0.3817699888676427,0.009926560120717751,0.08582656596682116,-0.039858956792420505,22.5,0.8753802107536168,0.02802811265351822,0.009849862214831518,0.4825213899262747,3.358244162409104,-0.5617126888228193,57.71182777612182
0.8824131488800049,0.07178467799999999,0.5874379483,9.945767136899999,0.10234,-0.15834,0.32942,0.3795557503187114,0.0007635815477475193,0.07681630370340044,-0.051618112627732304,22.5,0.8712804648207407,0.014507242394646428,0.019387348391298315,0.49018774185225333,2.5387535213316412,1.1208394469129062,58.74958312551796
0.8976132869720459,0.13339985995,0.60598232345,9.990034354999999,0.10738,-0.15638000000000002,0.31346,0.36639096659169973,-0.019700403931885997,0.050243665841786765,-0.0514653963181828,22.5,0.8731825000374343,0.03061725346655086,0.00928708215988531,0.4863421177766701,3.5837836754834136,-0.7770854885595974,58.20924580105296
0.9119277000427246,0.11306086784999998,0.5898307708999999,9.9876415324,0.10738,-0.15638000000000002,0.31346,0.36639096659169973,-0.013591751549905842,0.006566801310628666,-0.03283400655314333,22.5,0.8695870342264697,0.014811051881831714,0.016009905300647158,0.4932977859058674,2.381780312603,0.7581308816308937,59.146356305489725
0.9261507987976074,0.11365907349999999,0.55573304885,9.94397251995,0.10822000000000001,-0.15918000000000002,0.3164,0.3703495656808578,-0.02061670178918302,-0.008552113334772215,-0.018173240836390957,22.5,0.8716269885565947,0.0313487545388349,0.006450615421531441,0.4891237450475177,3.4955283376749935,-1.1128559635559185,58.56499089766503
0.9405708312988281,0.2225325018,0.5515456093,9.945168931249999,0.10822000000000001,-0.15918000000000002,0.3164,0.3703495656808578,-0.05192354524683131,-0.02428189321837111,0.0009162978572970231,23.5,0.8673896250497246,0.015116529817846397,0.0077395469831173834,0.49733975137209785,1.9439749903735244,-0.09222887568445354,59.65622031280641
0.9547851085662842,0.22073788485,0.5688935731499999,10.013962581,0.11718,-0.14882,0.31766,0.369846482205793,-0.06841690667817772,-0.0357356164345839,0.029168815123955236,22.5,0.8702983127583728,0.03177784634956732,0.0008656473543737745,0.49149798162960023,3.221041859874922,-1.7036976519118057,58.862974789838425
0.9689209461212158,0.12741780345,0.5264209719999999,10.0510513313,0.11718,-0.14882,0.31766,0.369846482205793,-0.06001750965295501,-0.04306599929296009,0.06444628262989062,22.5,0.8768712752930381,0.033013421323881284,0.009115190314188148,0.4795036953809522,3.8214108620451754,-0.8981147723706692,57.312781395543695
0.9835629463195801,0.10408778309999998,0.46420758439999993,9.8859465719,0.10598,-0.15162,0.32942,0.37780672466222726,-0.05894849548610849,-0.028405233576207715,0.09147706942015281,22.5,0.8742095791524831,0.014358072629160756,0.011372827371163423,0.4852031700906331,2.0711682495456936,0.3409866460470091,58.06840209755614
0.9976153373718262,0.04007977854999999,0.48095734259999995,9.7686982645,0.11102000000000001,-0.14994000000000002,0.3164,0.36730968405420517,-0.05681046715241543,-0.027947084647559205,0.11407908323347937,22.5,0.8768347423331996,0.031228897758605358,0.004880383181349793,0.47975178211472763,3.4089057749690905,-1.2265476354888758,57.33320857948416
1.0118887424468994,0.03409772205,0.4342973019,9.916455060049998,0.11102000000000001,-0.14994000000000002,0.3164,0.36730968405420517,-0.06811147405907872,-0.029626964052603746,0.1464549408579742,22.5,0.8755696713872981,0.012733348055525891,0.012091981919163074,0.48277261352245554,1.9469736779255777,0.5088001896926306,57.75167346216861
1.026186227798462,-0.0873380249,0.5449653471499999,9.936794052149999,0.10878000000000002,-0.15134,0.31738000000000005,0.3680583491784965,-0.08353582132357862,-0.030085112981252257,0.21532999646480042,22.5,0.8775594187743071,0.031014936772607134,0.012492839098432922,0.47830060546559244,3.8065262824923414,-0.4436175115224739,57.169119405380115
1.040158987045288,-0.06520441585,0.6418746624499999,10.073783145999998,0.10878000000000002,-0.15134,0.31738000000000005,0.3680583491784965,-0.08109236037078654,-0.0025961772623415654,0.2695442863548743,22.5,0.8749676139465379,0.01655266578017289,0.02518483771796428,0.48324259720081825,3.056912814178685,1.6087289734365344,57.86646682254051
1.0545833110809326,0.023928225999999997,0.7130611348,10.0905329042,0.10542000000000001,-0.1603,0.31514000000000003,0.3689480803581989,-0.06230825429619757,0.02657263786161367,0.30375273969396316,22.5,0.8746508435178237,0.033300006407935206,0.014801788524668008,0.48338175241030984,4.16121236994788,-0.36099085286408517,57.84195260995171
1.0685350894927979,0.09152546445000001,0.6675975054,9.94875816515,0.10542000000000001,-0.1603,0.31514000000000003,0.3689480803581989,-0.06307183584394509,0.036804630601430424,0.3402519376762946,23.5,0.8693751707467665,0.017903155462109847,0.018851022903005284,0.49346826488543366,2.851043144672308,0.8656543835209857,59.18111909632796
1.0875999927520752,0.15074782379999999,0.47497528609999995,9.7639126193,0.10122000000000002,-0.15274000000000001,0.31822,0.3672042543326534,-0.09361509775384586,0.031459559767197796,0.4321871560250959,22.5,0.8696464339094934,0.028989730660605673,0.0028597119441557484,0.49281487148048125,3.052735492915188,-1.3522637758838234,59.04304841692943
1.1015946865081787,0.17647066675,0.7094719009,9.6622176588,0.10178000000000001,-0.1435,0.32550000000000007,0.3700022545877255,-0.10766499823240021,0.07773260156069746,0.5106833391335408,22.5,0.8669592324474741,0.03922872553440747,0.01920815475345848,0.49646132090828554,4.996392035462731,-0.32347739402981746,59.58081928078424
1.117314338684082,0.0047856452,0.7657032319999999,9.73699336505,0.10178000000000001,-0.1435,0.32550000000000007,0.3700022545877255,-0.12110403347275656,0.08078692775168753,0.5502368633068624,22.5,0.8656643458840071,0.018620882661858747,0.020434089121512906,0.4998609316558772,3.0194339514794124,0.9604609752489838,60.03220284369056
1.131561040878296,-0.04127618984999999,0.6466603076499999,10.097711372000001,0.09254000000000001,-0.14210000000000003,0.32634,0.3677687550621994,-0.1351539339513109,0.10629055144645468,0.5878050754560403,22.5,0.8660361002069212,0.03551459171545645,0.012957289524784737,0.49855019362331277,4.269036125021805,-0.7430698655080872,59.827710313128364
1.146141767501831,0.03649054465,0.59521462175,10.016953609249999,0.09254000000000001,-0.14210000000000003,0.32634,0.3677687550621994,-0.11133018966158831,0.09605855870663792,0.612850550222159,22.5,0.8622856141855666,0.016662345242763336,0.018260835477746488,0.5058185719280047,2.7061573816777256,0.8386031847221201,60.81176112657932
1.160142421722412,0.1782652837,0.7351947438499999,9.81834933345,0.08694000000000002,-0.13706000000000002,0.32648,0.36460005156335346,-0.07360926120286085,0.04382958084070761,0.6320928052253965,22.5,0.8614961131970684,0.03465490483730411,0.010783364350952252,0.5064654021454336,4.05089557960208,-0.94676231575493,60.86825052528894
1.1789753437042236,0.25423740125,0.8997012976000001,9.703493848649998,0.08582000000000001,-0.1365,0.33824,0.3747047104054071,-0.03802636107782646,-0.030085112981252257,0.6592763083252082,22.5,0.8545813006689855,0.04264661273737063,0.022888633012701377,0.5170572284068214,5.54115204337413,-0.28539622636212236,62.33755381505611
1.1929903030395508,0.17766707805,0.8787640998499999,9.80399239785,0.08582000000000001,-0.1365,0.33824,0.3747047104054071,-0.04581489286485116,-0.062155537986648066,0.6630942160639458,22.5,0.8494674800321504,0.03289690196605791,0.007483622657348911,0.5265612876017247,3.6571634158989075,-1.2566133386010292,63.54712800309682
1.2083489894866943,-0.0095712904,0.7956135144999998,9.771091087099999,0.07126,-0.1365,0.32802000000000003,0.36236357156866644,-0.057879481319261954,-0.07299839596466283,0.6235406918906241,22.5,0.8450455022586976,0.024677917794889464,0.02360805402894982,0.5336026229982576,3.836453438123669,0.7771469079220648,64.5666218914918
1.2224888801574707,-0.08015955709999999,0.6484549245999999,9.857830906349998,0.07126,-0.1365,0.32802000000000003,0.36236357156866644,-0.06902777191637574,-0.08429940287132612,0.5852088981936987,22.5,0.8439247673978013,0.03271032641670234,0.004740910218434661,0.5354423827906982,3.4575555114810306,-1.548724319486401,64.7408081489609
1.2366421222686768,-0.09092725880000001,0.7411768003499999,9.771091087099999,0.07658000000000001,-0.13342,0.32662,0.3610346481987567,-0.04413501345980661,-0.10491610466050914,0.573449742358387,22.5,0.8415657782540952,0.026717138928739493,0.02297120398704686,0.5390042292472544,3.998766829387211,0.5650748384171937,65.2970497487798
1.2515792846679688,-0.00059820565,0.861416136,9.68076203395,0.07658000000000001,-0.13398000000000002,0.32144000000000006,0.35656529612400595,-0.007177666548826681,-0.1745547418150829,0.5696318346196494,22.5,0.8419862011958007,0.04599785007342851,0.018318318177193076,0.5372223692323749,5.575532621543809,-1.0643077205858726,65.0273261490116
1.2665870189666748,0.07058826669999999,0.8111668613999999,9.72622566335,0.08106000000000001,-0.13398000000000002,0.32144000000000006,0.35755424427630567,0.015577063574049392,-0.22434025872822116,0.5438227783057832,22.5,0.8405042716084231,0.02705977027661809,0.020759460407972524,0.5407304162372786,3.895637462190953,0.32273442894979215,65.52060965229863
1.2826464176177979,-0.10229316614999999,0.8147560952999998,9.7459664498,0.07798000000000001,-0.12278000000000001,0.32718,0.35805385237419246,-0.001069014166846527,-0.22602013813326569,0.5111414880621894,22.5,0.8425170785737707,0.045336318010451626,0.01787221634638865,0.5364607855786309,5.484998961232185,-1.0615807066992073,64.92188037613425
1.2966034412384033,-0.22133609049999997,0.7639086150499999,9.812367276949999,0.07798000000000001,-0.12278000000000001,0.32718,0.35805385237419246,-0.011759155835311796,-0.1631010185988701,0.49235738198760043,22.5,0.842047675932304,0.029188676515679815,0.02814567012243299,0.537876894719998,4.556636043000457,0.9167809228952889,65.17511713849609
1.3110740184783936,-0.18305092890000002,0.8171489178999999,9.966106128999998,0.06874000000000001,-0.12334000000000002,0.32074,0.35044556039419306,-0.01069014166846527,-0.07666358739385093,0.5033529562751647,22.5,0.8449233144812212,0.04525129188498808,0.023155706894167346,0.5324666435252432,5.804312379225055,-0.5191076534721123,64.41155276745785
1.3252325057983398,-0.09690931529999999,0.83449688175,9.9649097177,0.06874000000000001,-0.12334000000000002,0.32074,0.35044556039419306,-0.02229658119422756,-0.014049900478554353,0.5151121121104765,22.5,0.8419216160944218,0.027385767388564568,0.030444254477087342,0.5380438267156594,4.524924599792689,1.2487953940931964,65.21189850570883
1.3393807411193848,0.04127618984999999,0.7830511958499999,9.926624556099998,0.06958000000000002,-0.11494000000000001,0.31808000000000003,0.34529330488730886,-0.04535674393620265,0.006261368691529657,0.5251913885407438,22.5,0.8427410771758571,0.040949539584518586,0.01710316594375287,0.5364868066998408,5.012952296520531,-0.8658119699204808,64.9235506277864
1.3537321090698242,0.011365907350000001,0.65742800935,9.7938229018,0.0679,-0.11746000000000001,0.32452000000000003,0.3517392386413549,-0.07223481441691533,-0.008399397025222712,0.5453499414012782,22.5,0.8402794096170872,0.021403342997184775,0.02079889868223191,0.541331521801299,3.353249221833768,0.6750265986287346,65.6012949777532
1.3683655261993408,-0.037686955949999996,0.6717849449499999,9.727422074649999,0.0679,-0.11746000000000001,0.32452000000000003,0.3517392386413549,-0.07315111227421234,-0.0119118721448613,0.5736024586679365,22.5,0.8413032990461274,0.03856152093503139,0.013573167153960477,0.5390153404595177,4.5615572385511225,-1.073338896913221,65.25188134262672
1.3830156326293945,-0.107677017,0.6903293201,9.7974121357,0.06174000000000001,-0.11438000000000001,0.32102,0.34633575097006664,-0.05207626155638081,0.021532999646480044,0.5933028625998225,22.5,0.8382896953459097,0.022890283175205233,0.02544786196259932,0.5441496374477826,3.7890199339741364,1.0172759727471592,66.01037349405978
1.398033857345581,-0.1734796385,0.6915257314000001,9.9242317335,0.06174000000000001,-0.11438000000000001,0.32102,0.34633575097006664,-0.00595593607243065,0.06291911953439559,0.6217080961760302,22.5,0.8400871608593676,0.039053564272055696,0.01873859168165837,0.5407191937213655,4.926997736051065,-0.6159370815038003,65.50793653816586
1.41229248046875,-0.22791635265,0.75194450205,10.021141048799999,0.0511,-0.10990000000000001,0.31864000000000003,0.34091152752583775,0.020922134408282028,0.08857545953871222,0.6498078971331389,22.5,0.8364296515796391,0.023619496588980323,0.030762784361546832,0.5467002912360404,4.19620788925486,1.4690092186272883,66.39202939778549
1.4267258644104004,-0.19381863059999999,0.79142607495,9.9625168951,0.0511,-0.10990000000000001,0.31864000000000003,0.34091152752583775,0.03252857393404432,0.09804387073078147,0.6663012585644853,22.5,0.8348694534001792,0.04265758785948255,0.025352895598746535,0.5482066733104001,5.683043519209498,-0.2542584467836104,66.56819583089722
1.4408199787139893,-0.0729810893,0.8398807326,9.772287498399999,0.0539,-0.11550000000000002,0.32550000000000007,0.34956502971550235,0.031001410838549282,0.09605855870663792,0.6695083010650249,22.5,0.8305770813374385,0.02548556607480397,0.03360026274161593,0.5553046193059474,4.5703089078096815,1.5764465377989276,67.59445381227319
1.4563758373260498,-0.13758729949999998,0.7830511958499999,9.72502925205,0.054180000000000006,-0.11326,0.32578,0.3491359454424594,0.019853120241435502,0.08765916168141522,0.6548475353482724,22.5,0.8308069150782667,0.03940779726003989,0.020795909813555155,0.5547742112862422,5.080674492756095,-0.5254147000626476,67.44300091548307
1.4703824520111084,-0.21355941705,0.6047859121499999,9.8560362894,0.054180000000000006,-0.11326,0.32578,0.3491359454424594,-0.0036651914291880926,0.07941248096574201,0.6731734924942129,22.5,0.8279920192607245,0.020780229230115285,0.028086675182451816,0.5596503701337894,3.776633661032489,1.3323477776915795,68.15445346813033
1.4850244522094727,-0.26739792554999997,0.7196413969499998,9.9625168951,0.047740000000000005,-0.11046,0.32830000000000004,0.3496589898744204,-0.0319177086958463,0.0919352183488013,0.6927211801165495,23.5,0.8283578654243308,0.0380275425917116,0.035433479783931195,0.557782772506003,5.885614467967895,0.9328730619452854,67.95742614297085
1.4992849826812744,-0.23030917524999997,0.76749784895,10.000203851049998,0.047740000000000005,-0.11046,0.32830000000000004,0.3496589898744204,-0.06032294227205402,0.10842857978014774,0.7229590094073512,22.5,0.8253000310812029,0.01790634632358423,0.034650379355526846,0.563345873038246,3.936081720731734,2.1215163877057552,68.70742675667593
1.5139284133911133,-0.18484554585,0.65503518675,10.03250695615,0.04046,-0.10906000000000002,0.32914000000000004,0.34909058251405184,-0.09346238144429636,0.11835513990086549,0.7348708815522125,22.5,0.8236900881342438,0.026569395025335837,0.01715390393420769,0.5661576189871556,3.623142306600257,-0.10461811584535466,69.00151981665677
1.5280330181121826,-0.03649054465,0.7196413969499998,9.9014999188,0.04046,-0.10906000000000002,0.32914000000000004,0.34909058251405184,-0.11163562228068731,0.0870482964432172,0.7327328532185194,22.5,0.818133928319517,0.016409908235947793,0.0324505922962038,0.5738767718803303,3.67712806342598,1.963528562379033,70.15820800966932
1.5420596599578857,0.08315058534999999,0.7758727280500001,9.851848849849999,0.044660000000000005,-0.10822000000000001,0.32886000000000004,0.34907733183350653,-0.10079276430267253,0.036499197982331415,0.7235698746455492,22.5,0.8172215215483667,0.0321157861947434,0.020874699220230202,0.5750493960763118,4.387396004316509,-0.16144940675945701,70.25916163633616
1.5564796924591064,0.0167497582,0.8069794218499999,9.76451082495,0.044660000000000005,-0.10822000000000001,0.32886000000000004,0.34907733183350653,-0.08613199858592017,-0.00473420559603462,0.7186829527399651,22.5,0.8112824829721678,0.025573305510716682,0.0369130783736628,0.5829272368938937,4.851177457564091,1.723666329668285,71.46944582362067
1.5703303813934326,-0.15074782379999999,0.7351947438499999,9.8500542329,0.0427,-0.09954,0.32578,0.3433134282255793,-0.08216137453763307,-0.025503623694767143,0.7180720875017671,23.5,0.8119023914388511,0.03584033062368188,0.020858761831988457,0.5823185464430066,4.73188615951313,-0.45094657554345635,71.27961428950081
1.5849764347076416,-0.20997018315,0.6783652070999998,10.04566748045,0.040740000000000005,-0.09338,0.32802000000000003,0.3434773535475083,-0.08429940287132612,-0.017409659288643436,0.7029531728563663,23.5,0.8097162241845414,0.018012691143122685,0.029850316404882154,0.5857850611449907,3.6789616852628906,1.5607833948131782,71.81746011795101
1.6010665893554688,-0.23449661479999998,0.97328059255,9.87697348715,0.040740000000000005,-0.09338,0.32802000000000003,0.3434773535475083,-0.08903360846736075,-0.016340645121796914,0.6757696697565546,22.5,0.8094184121456812,0.03723701951133035,0.02941813905429653,0.5853117216937133,5.435146298009207,0.23105380986230797,71.7543279086431
1.6153004169464111,-0.13459627124999998,0.9607182738999999,9.83150985775,0.025340000000000005,-0.10066000000000001,0.32788000000000006,0.34391837054743096,-0.06001750965295501,-0.039095375244672985,0.6550002516578219,22.5,0.8042622333598958,0.0242219108706181,0.04188124303934121,0.5923018829163117,5.085402426516765,2.2163889200130398,72.83828756319457
1.6293058395385742,0.031106693799999998,0.8775676885499999,9.8010013696,0.025340000000000005,-0.10066000000000001,0.32788000000000006,0.34391837054743096,-0.04489859500755413,-0.060933807510252035,0.6513350602286339,23.5,0.8011615241365289,0.035602437943583067,0.025066243695218083,0.5968620963696046,4.989261115828641,-0.1338013218523398,73.36609411622183
1.643625020980835,-0.0,0.8650053699,9.8177511278,0.026180000000000002,-0.08974000000000001,0.3304,0.34336980065229966,-0.04214970143566306,-0.07192938179781631,0.6731734924942129,23.5,0.7958773430825545,0.022100971139857706,0.03675888004733666,0.6039367405450625,4.56670692071953,1.8232269168960005,74.45744292686187
1.6582152843475342,-0.09332008139999999,0.8488538173499999,9.945168931249999,0.026180000000000002,-0.08974000000000001,0.3304,0.34336980065229966,-0.03527746750593539,-0.06704245989223219,0.6889032723778119,22.5,0.7946796406289269,0.03787222797645231,0.024058976295160187,0.6053685891897664,5.124733696316568,-0.43630912365561514,74.57909958511854
1.6722323894500732,-0.10229316614999999,0.7429714172999999,9.975079213749998,0.024220000000000002,-0.08806,0.32200000000000006,0.33470161636896834,-0.03390302071998985,-0.05635231822376692,0.6905831517828563,22.5,0.7907792562329155,0.020752474092768158,0.032586416718068514,0.6108810262041392,4.166726305965411,1.5003319195387592,75.42712162584868
1.6872379779815674,-0.1459621786,0.7322037156000001,9.84586679335,0.027020000000000002,-0.08442,0.32984,0.3415424459712145,-0.040317105721069016,-0.04963280060358875,0.6921103148783514,22.5,0.7907458106369387,0.035810715870539245,0.020031552491536774,0.6107678712029219,4.6523430912257995,-0.6912523601524607,75.33653483995033
1.7021980285644531,-0.1351944769,0.7836494015,9.728020280299999,0.027020000000000002,-0.08442,0.32984,0.3415424459712145,-0.03924809155422249,-0.05833763024791047,0.6942483432120445,23.5,0.7875204728424212,0.02224791082741993,0.033841981868760126,0.6149563037981307,4.398323606348738,1.4863918024394231,76.02797151163765
1.716362476348877,-0.13938191645,0.7381857721,9.757930562799999,0.02338,-0.07518000000000001,0.33362,0.34278413207148317,-0.01069014166846527,-0.0832303887044796,0.692568463807,22.5,0.7872690226400624,0.0363868582793363,0.019773125981680042,0.6152174461317179,4.682242998129462,-0.7814309943097325,75.98029600770465
1.7305748462677002,-0.2069791549,0.6652046827999999,9.891330422749999,0.02338,-0.07518000000000001,0.33362,0.34278413207148317,0.0003054326190990077,-0.09269879989654883,0.6957755063075395,22.5,0.7844875300739044,0.019987979292075072,0.030018161919113072,0.6190950700800016,3.930475872400802,1.280600170017957,76.60292284426758
1.744624137878418,-0.18843477974999998,0.65623159805,9.892526834049999,0.030100000000000002,-0.08302000000000001,0.31822,0.33024581571913975,-0.017409659288643436,-0.06872233929727674,0.7047857685709602,22.5,0.7855339163639015,0.034265823185015185,0.01775660091544125,0.6176139754955144,4.345768833940406,-0.8267654244129335,76.31994190529988
1.7596664428710938,-0.3337987527,0.7980063371,9.571290399999999,0.030100000000000002,-0.08302000000000001,0.31822,0.33024581571913975,-0.010231992739816757,-0.025350907385217638,0.7571674627464401,22.5,0.7834518026239494,0.024328770079189887,0.03477471314476013,0.6200016961568879,4.661318340574761,1.3936203859509126,76.77092288539289
1.773848533630371,-0.3900300838,0.87637127725,9.6394858441,0.012740000000000001,-0.07210000000000001,0.31696,0.3253065618766397,0.0068722339297276735,-0.0068722339297276735,0.7854199800130983,22.5,0.7797045015165424,0.01763869389669277,0.05312011202203167,0.6236409387550066,5.390064746282723,3.4877743152885423,77.4728501164828
1.7887513637542725,-0.34636107135,0.8231309743999999,9.7435736272,0.02114,-0.08498,0.32046,0.33220943936017233,0.02351831167062359,0.02061670178918302,0.7751879872732815,22.5,0.7798589787957159,0.03007550712625605,0.03876622718881011,0.6240293396086015,5.469559194727342,1.3138147081666602,77.39511213458576
1.8032722473144531,-0.2524427843,0.7226324252,9.84108114815,0.02114,-0.08498,0.32046,0.33220943936017233,0.008246680715673207,0.06551529679673715,0.772897242630039,22.5,0.7795725397931063,0.01762673228658983,0.02397960240215973,0.625604453451266,3.2959170292395887,0.8785480160969156,77.51913799001609
1.8180582523345947,-0.15553346899999998,0.7956135144999998,9.961320483799998,0.012740000000000001,-0.0735,0.33572,0.34390765621021,-0.059406644414757,0.1429424657383356,0.7961101216815636,22.5,0.7753176510697752,0.027215991389135337,0.041049802198064034,0.6296481108459333,5.3901114213312145,1.6836081652407966,78.24048587961148
1.8330292701721191,-0.0634097989,0.8817551281,10.012766169699999,0.012740000000000001,-0.0735,0.33572,0.34390765621021,-0.09743300549258345,0.20891591146372127,0.8521570072862314,22.5,0.7725534133045684,0.034976179674914114,0.023425677707416843,0.6335527823873535,4.8028553174868955,-0.4654380651461053,78.68921705355794
1.8476390838623047,-0.14955141249999998,0.84765740605,9.940981491699999,0.0161,-0.07406,0.33194000000000007,0.34048238897188216,-0.11407908323347937,0.21884247158443904,0.8976664675319836,22.5,0.7683700924970136,0.02080496017277772,0.0384253702545417,0.6385123691120957,4.650920016671481,1.8613723437995886,79.52847799674045
1.8631763458251953,-0.29312076849999996,1.016949605,9.864411168499998,0.006580000000000001,-0.06930000000000001,0.32158000000000003,0.32902808816269774,-0.09010262263420728,0.17211128086229083,0.8981246164606321,22.5,0.7640873098538363,0.03569711703825175,0.05084849744829075,0.6421142648024073,6.887104824108391,1.8258744359908041,80.19509456648491
1.8776226043701172,-0.31106693799999996,0.93738825355,9.836893708599998,0.006580000000000001,-0.06930000000000001,0.32158000000000003,0.32902808816269774,-0.08949175739600926,0.10644326775600418,0.8384125394267761,22.5,0.7614353695884563,0.017652329407533685,0.04136615530548276,0.6466787567265695,4.614337889406882,2.3018774981982926,80.77451662602913
1.8927726745605469,-0.22911276394999996,1.00319087505,9.832706269049998,0.01022,-0.0763,0.32368,0.3327084020580184,-0.04321871560250959,0.03252857393404432,0.7582364769132866,22.5,0.7599339939737658,0.03672685298832589,0.03640408309131052,0.6479399708359839,5.911856370438705,0.44323359396597917,80.92647486453379
1.9070205688476562,-0.28235306679999994,0.9104689992999999,10.0163554036,0.01022,-0.0763,0.32368,0.3327084020580184,0.0019853120241435504,-0.022449297503777065,0.6821837547576337,22.5,0.7568113252842091,0.01919597019514571,0.045043679884874274,0.6517969005390062,5.040274342128151,2.4733896436546634,81.58163425449203
1.9225349426269531,-0.39062828945,0.84047893825,9.9888379437,0.006860000000000001,-0.06398000000000001,0.33208000000000004,0.33825674627418745,0.04413501345980661,-0.07024950239277176,0.6420193653461141,22.5,0.7573617463832718,0.0319945368016556,0.03039779574929054,0.6515025009496991,5.052711361410183,0.249536162136743,81.41697803833955
1.9390318393707275,-0.45104706009999995,0.8273184139499999,9.9649097177,0.006860000000000001,-0.06398000000000001,0.33208000000000004,0.33825674627418745,0.02977968036215325,-0.0949895445397914,0.5830708698600058,22.5,0.7549013462517803,0.01770717790343702,0.04335549716474949,0.6541641339476992,4.791631818555409,2.4238442064685928,81.92293743119998
1.9571316242218018,-0.34815568830000004,0.8093722444499999,9.869795019349999,0.006300000000000001,-0.058100000000000006,0.32886000000000004,0.3340122746247509,0.03252857393404432,-0.08399397025222713,0.5416847499720902,22.5,0.755302268749739,0.032023470939444604,0.029652042532107944,0.6539218122254079,4.999980546596303,0.16677780432387587,81.77767143243238
1.971038579940796,-0.179461695,0.77228349415,9.749555683699999,0.006300000000000001,-0.052500000000000005,0.33418000000000003,0.33833742388331806,0.03512475119638588,-0.07009678608322227,0.5690209693814514,22.5,0.7526489605975476,0.015291477476598966,0.03938889380964513,0.6570648581932126,4.291906066429855,2.246400157154568,82.32630553215665
1.9868862628936768,-0.25782663515,0.9355936366,9.7208418125,0.006300000000000001,-0.052500000000000005,0.33418000000000003,0.33833742388331806,0.038942658935123484,-0.03329215548179184,0.6232352592715252,22.5,0.7515556041385251,0.03485822133448277,0.03444324437305084,0.6578470500127145,5.607562683122242,0.33857823127797165,82.40879994118013
2.0012073516845703,-0.3720839143,1.0157531937,9.84706320465,-0.0012600000000000003,-0.0441,0.33194000000000007,0.3348590169011431,0.03329215548179184,-0.0036651914291880926,0.6721044783273665,22.5,0.7483378946678435,0.022820662291603434,0.04993552798962383,0.6610416445437228,5.754930958329257,2.554317211727265,83.03972341712695
2.016059160232544,-0.39302111205,0.8602197247,9.86620578545,-0.0012600000000000003,-0.0441,0.33068000000000003,0.3336100418152907,0.017256942979093935,-0.014355333097653362,0.6983716835698811,22.5,0.7479501626002123,0.024813008815439935,0.030480417958487944,0.6625902300675107,4.445805696322168,0.7284754570506334,83.1021278680707
2.030308961868286,-0.51744788725,0.76989067155,9.963713306399999,-0.00882,-0.03878,0.33068000000000003,0.3330629718236478,-0.012828170002158324,-0.0476474885794452,0.7208209810736582,22.5,0.744607861718212,0.011597263585857073,0.04475860650475319,0.6658988683640368,4.415068466078208,2.935401461511692,83.72537298137644
2.046537399291992,-0.430708068,0.79621172015,10.02054284315,-0.0035000000000000005,-0.041580000000000006,0.33852000000000004,0.341082008906949,-0.014202616788103858,-0.06841690667817772,0.7490734983403163,22.5,0.7434760861672552,0.02762166482436519,0.032534815216799295,0.6673993098052763,4.847567783605757,0.6593946739955345,83.85491970102984
2.0606119632720947,-0.27577280465,0.85962151905,10.04925671435,-0.0035000000000000005,-0.041580000000000006,0.33852000000000004,0.341082008906949,0.009010262263420728,-0.053297992032776846,0.7739662567968856,22.5,0.7396826314988302,0.014576198146295028,0.046776482460162486,0.6711699485191661,4.844832783433357,2.8449469820986373,84.56004365962238
2.07453989982605,-0.26141586904999997,0.8051848048999999,9.860223728949999,-0.007420000000000001,-0.04914000000000001,0.32900000000000007,0.3327323188390332,0.02351831167062359,-0.025198191075668133,0.7826710864412073,22.5,0.73725126641479,0.02686399310605302,0.030722080198581664,0.674384941878493,4.649001277202668,0.5194758761235985,84.92119421443226
2.09027361869812,-0.26321048599999997,0.7980063371,9.8333044747,-0.007420000000000001,-0.04914000000000001,0.32900000000000007,0.3327323188390332,0.027947084647559205,0.005192354524683131,0.7684684696531033,22.5,0.732992348835357,0.013629689847712293,0.04500836485891388,0.6786093833688187,4.655168521097496,2.721604780409997,85.69810464191237
2.1041953563690186,-0.2943171798,0.7082754896000001,9.904490947049998,-0.0012600000000000003,-0.04186000000000001,0.33376000000000006,0.33637714666724916,0.05772676500971245,0.0319177086958463,0.7586946258419351,22.5,0.7318705601442513,0.02523463039937085,0.02923617788014923,0.6803483979004487,4.4001296170059305,0.48458569385901085,85.83981163773625
2.1184446811676025,-0.31645078885,0.6245266985999999,9.9469635482,-0.009100000000000002,-0.03794,0.32746000000000003,0.3297761440735215,0.0714712328691678,0.0355829001250344,0.7484626331021184,22.5,0.7282661061759352,0.008925562741078797,0.040421878612908,0.6840430429837728,3.920684758148661,2.6746691447629787,86.5045776472145
2.133090019226074,-0.36670006345,0.7435696229499998,9.91884788265,-0.009100000000000002,-0.03794,0.32746000000000003,0.3297761440735215,0.13316862192716736,0.02290744643242558,0.7399105197673461,22.5,0.7261171967704054,0.027670013652222755,0.03274720104243605,0.6862330564193627,4.883596806878613,0.5489280672338177,86.78825360358016
2.1474239826202393,-0.43369909624999997,0.8303094421999999,10.040283629599998,-0.014980000000000002,-0.03122,0.32970000000000005,0.33151346699644046,0.17394387657688487,-0.009621127501618741,0.7148650450012275,22.5,0.7225703681050127,0.014911570571905935,0.04767263777832973,0.6894904116859941,5.013536537295123,2.770235849387885,87.43728881420992
2.1615800857543945,-0.46420758439999993,0.8446663778,9.754341328899999,-0.014980000000000002,-0.03122,0.32970000000000005,0.33151346699644046,0.15485433788319689,-0.059406644414757,0.6855435135677228,22.5,0.7177561806159362,-0.0006408015462228728,0.05769760498749397,0.6938995899549943,4.555896894776979,4.802132335872578,88.25475291317737
2.1757538318634033,-0.37148570864999997,0.87158563205,9.8010013696,-0.02142,-0.032060000000000005,0.32046,0.3227712372563578,0.08353582132357862,-0.10613783513690518,0.6759223860661041,22.5,0.7155881213915857,0.01636466580078603,0.04592478815323064,0.6968190239004463,5.0200236951910675,2.4598930621356563,88.58516176386085
2.190157890319824,-0.31166514365,0.65024954155,9.84945602725,-0.02142,-0.032060000000000005,0.32046,0.3227712372563578,0.014813482026301873,-0.11988230299636052,0.7061602153569058,22.5,0.7111373647957616,-0.0024400625128300755,0.04410536872361516,0.7016640299573773,3.356709548544044,3.793124266447442,89.34281809843513
2.204172134399414,-0.25543381255,0.5300102058999999,9.8919286284,-0.019180000000000003,-0.030100000000000002,0.3304,0.3323221966706407,-0.023212879051524585,-0.09162978572970232,0.7811439233457121,22.5,0.7086759128824401,0.01045685646562567,0.028154953356433355,0.7048946043591159,3.1259387350211565,1.441915184126714,89.7328134952477
2.218701124191284,-0.37507494255,0.4791627256499999,9.83509909165,-0.019180000000000003,-0.030100000000000002,0.3304,0.3323221966706407,-0.020158552860534508,-0.013133602621257331,0.7762570014401281,22.5,0.7045367431107028,-0.004076256357805956,0.041275260205333335,0.7084544548776943,3.029359323406695,3.665738015694424,90.41468361566264
2.2337963581085205,-0.44446679795,0.36909288605,9.945767136899999,-0.01946,-0.025900000000000003,0.32620000000000005,0.32780473089935724,0.0016798794050445422,0.038789942625573975,0.8599455390732561,22.5,0.7021631896541054,0.0002478822329668266,0.021984613182108963,0.7116765209225357,1.8139849131972048,1.7489816709740764,90.79873370746856
2.247995376586914,-0.4097708702499999,0.34875389395,9.8201439504,-0.015540000000000002,-0.02058,0.32746000000000003,0.3284738644093317,0.02336559536107409,-0.006566801310628666,0.8837692833629788,22.5,0.6980266288749132,-0.010708800926678017,0.03847536160452082,0.7149571969800977,2.301744215472155,3.958064328810732,91.45253225020402
2.262500286102295,-0.4019941968,0.23928225999999997,9.771091087099999,-0.015540000000000002,-0.02058,0.32746000000000003,0.3284738644093317,-0.02703078679026218,-0.0474947722698957,0.9095783396768449,22.5,0.6956747630177667,-0.00015093769263869374,0.021282043524975196,0.7180415558596788,1.7401276071306984,1.7092445342283582,91.83879278844304
2.2770321369171143,-0.35952159564999997,0.24287149389999999,9.7603233854,-0.023940000000000003,-0.009380000000000001,0.32746000000000003,0.32846789736593746,-0.12614367168789017,-0.06673702727313319,0.910494637534142,22.5,0.6913265934794544,-0.011882954854657284,0.03671686923499893,0.7215110588519037,2.09966348578894,3.894186636601146,92.51919921706701
2.2916946411132812,-0.47377887479999997,0.4331008906,9.67717280005,-0.023940000000000003,-0.009380000000000001,0.32746000000000003,0.32846789736593746,-0.18341228776895413,-0.025961772623415653,0.8811731061006373,22.5,0.6877390200494204,0.0067682563655993636,0.029926132059002852,0.7253093530537295,3.0235786443386323,1.7962062458402173,93.09346821810098
2.3068079948425293,-0.4899304273499999,0.6717849449499999,9.75374312325,-0.015540000000000002,-0.007700000000000001,0.3318,0.3322529482186727,-0.15241087693040486,-0.008704829644321718,0.8552113334772216,22.5,0.6839948258552522,0.0007562615500446811,0.0483900228402499,0.7278797372926598,4.1076558236695275,3.732371847148992,93.69456717760865
2.321357011795044,-0.45523449964999996,0.7591229698499998,9.853643466800001,-0.015540000000000002,-0.007700000000000001,0.3318,0.3322529482186727,-0.07864889941799448,0.027488935718910694,0.8100073058505685,22.5,0.6814400296420743,0.017043230753685655,0.036991922765492416,0.7307397703266172,4.434304333308069,1.4616146225893019,94.05540232500812
2.335444450378418,-0.50189454035,0.63828542855,9.92482993915,-0.0175,-0.006860000000000001,0.32396,0.32450484002553803,-0.01145372321621279,0.050854531079984784,0.7661777250098608,22.5,0.6783357814929294,-6.021285563889128e-05,0.047461549298467104,0.7332175429290941,3.994605500006771,3.6968837391382015,94.58209140797041
2.349787473678589,-0.4935196612499999,0.57966127485,9.91884788265,-0.020300000000000002,0.0029400000000000003,0.32522,0.3258662026046887,0.050701814770435276,0.049938233222687756,0.7302893922657273,22.5,0.6761277852926552,0.00677586198881328,0.0290559517476121,0.7361800440908448,2.978765800155364,1.6798414392207237,94.91325504263612
2.365687608718872,-0.46480579005,0.6143572025499999,9.878768104099999,-0.020300000000000002,0.0029400000000000003,0.32522,0.3258662026046887,0.06872233929727674,-0.0054977871437821395,0.7278459313129353,22.5,0.6727839452703693,-0.0005887469146676162,0.047614004226363464,0.7383050338207364,3.994582549441167,3.7232487763299007,95.44689849919646
2.3796164989471436,-0.2620140747,0.63230337205,9.834500885999999,-0.027860000000000003,0.012180000000000002,0.32102,0.32245677601812,0.05849034655745997,-0.050701814770435276,0.7417431154819402,22.5,0.6692774155245468,0.015330699990017283,0.03493868871711963,0.7420323434577009,4.151452690390361,1.376124829145617,95.95200408128481
2.3938040733337402,-0.19262221929999998,0.5563312544999999,9.812367276949999,-0.027860000000000003,0.012180000000000002,0.32102,0.32245677601812,0.057879481319261954,-0.07910704834664299,0.751669675602658,22.5,0.6653394399048422,0.007264015677813246,0.05269732035081508,0.7446433080416335,5.065982095119587,3.3999217285186334,96.58881841651181
2.4084439277648926,-0.26380869165,0.43848474145,9.742975421549998,-0.026180000000000002,0.00602,0.3353,0.33637437892919253,0.06902777191637574,-0.08765916168141522,0.7773260156069746,22.5,0.6628673475120475,0.003257343539610869,0.033281674737117906,0.7479897054385843,3.1040157795228778,2.249422946488603,96.96632696847271
2.4238216876983643,-0.4899304273499999,0.34456645439999994,9.598807859899999,-0.026180000000000002,0.018060000000000003,0.3311,0.3326240610659427,0.08139779298988555,-0.07360926120286085,0.7799221928693161,22.5,0.6592384995029712,-0.004165262196113415,0.05153323067548926,0.7501543691134881,4.130159121193944,4.254944969901425,97.53523895265988
2.4377102851867676,-0.53659046805,0.3780659708,9.567701166099999,-0.028980000000000002,0.018060000000000003,0.3311,0.3328561461051906,0.07422012644105887,-0.04001167310197001,0.7654141434621133,22.5,0.6571054659115431,-0.012045447390703106,0.03364086553284079,0.7529512640486985,1.999885831205697,3.574737111719419,97.83958399144552
2.452754259109497,-0.5276173833,0.41156548719999997,9.5964150373,-0.030100000000000002,0.013300000000000001,0.33138000000000006,0.3330099163688674,0.048411070127192715,-0.014813482026301873,0.7287622291702324,22.5,0.6532538270351548,-0.005193089885520252,0.05264021148890953,0.7552890025783295,4.183257521504665,4.394275255625518,98.44713150431937
2.4675636291503906,-0.50428736295,0.36670006345,9.6562356023,-0.030100000000000002,0.013300000000000001,0.33138000000000006,0.3330099163688674,0.0476474885794452,0.010842857978014774,0.6759223860661041,22.5,0.651359155004053,-0.00996642736284806,0.03359506037462733,0.7579599550348635,2.1783317538215443,3.375137880585912,98.71540973547897
2.4827215671539307,-0.51026941945,0.2584248408,9.865607579799999,-0.02926,0.018900000000000004,0.33362,0.33543354334353626,0.04688390703169768,0.006719517620178169,0.6411030674888172,22.5,0.6477486369439954,-0.0032999804705576034,0.052692524914519166,0.7600225728780842,4.360078107280297,4.202352270451169,99.27975806576859
2.496757745742798,-0.5730810126999999,0.37746776514999997,9.9625168951,-0.02926,0.018900000000000004,0.33362,0.33543354334353626,0.026114488932965158,-0.007941248096574201,0.6339254009399905,22.5,0.6461138459881169,-0.013202807091121017,0.035626453699059604,0.7622947853056502,2.1397215352594228,3.793824377090991,99.50228493074059
2.5124173164367676,-0.5563312544999999,0.4791627256499999,10.012766169699999,-0.030660000000000003,0.024220000000000002,0.32382000000000005,0.32616872382250267,0.031764992386296806,-0.003054326190990077,0.6447682589180053,22.5,0.6425116621273406,-0.0016996732963385438,0.052245449522636246,0.764490868581977,4.467168663946711,3.9987890789521368,100.06569518861386
2.5266172885894775,-0.5569294601499999,0.44566320924999997,9.9218389109,-0.0357,0.030380000000000004,0.33152000000000004,0.3348177785004853,0.017409659288643436,-0.01466076571675237,0.6302602095108024,22.5,0.638372307560376,-0.0017797432260695026,0.07209349672778549,0.7663420627785289,6.241166013500949,5.438241364846573,100.70728318607513
2.5405609607696533,-0.5994020613,0.43130627364999996,9.8440721764,-0.0357,0.030380000000000004,0.33152000000000004,0.3348177785004853,0.017715091907742446,-0.0476474885794452,0.6070473304592777,22.5,0.6371030913924991,-0.007009344758823452,0.05301586829256755,0.7689212168573306,4.1761164356488685,4.492719319410258,100.87580722410716
2.555603504180908,-0.7489534737999999,0.35234312785,9.851250644199999,-0.03122,0.032900000000000006,0.32550000000000007,0.3286447145474882,-0.015424347264499889,-0.11988230299636052,0.5972734866481095,22.5,0.6332779850765577,0.00022725464191532732,0.0713576287775113,0.7706276862324332,6.356692930923133,5.165227882009833,101.46240234194968
2.5698087215423584,-0.59521462175,0.33260234139999995,9.868598608049998,-0.03122,0.032900000000000006,0.32550000000000007,0.3286447145474882,-0.05742133239061345,-0.17150041562409285,0.6107125218884658,22.5,0.6320544741291906,-0.005736473936567064,0.05190874193686881,0.7731621544738071,4.198933681811854,4.271847913577076,101.62517352058563
2.586642265319824,-0.6448656906999999,0.36670006345,9.91884788265,-0.026740000000000003,0.04046,0.32844000000000007,0.3320013144552293,-0.0675006088208807,-0.17363844395778588,0.6227771103428767,22.5,0.6283266072672679,0.010498411512920924,0.06353948498465058,0.7752794282086912,6.427216584293069,3.6446753163773127,102.15850636015965
2.6006124019622803,-0.72323063085,0.35114671655,10.076175968599998,-0.026740000000000003,0.04046,0.32844000000000007,0.3320013144552293,-0.039858956792420505,-0.14538592669112765,0.616821174270446,22.5,0.6270292234167265,-0.006593938655369608,0.053778206622653965,0.7771092442165883,4.3323774174461365,4.455766704107417,102.37031189384133
2.616124391555786,-0.8243273856999999,0.36490544649999995,10.107880868049998,-0.03318,0.041580000000000006,0.32242000000000004,0.326778924044988,-0.022143864884678056,-0.1227839128778011,0.5884159406942383,22.5,0.6231789716169985,0.002761309671119709,0.07120711222909022,0.778825970080142,6.590211689625558,4.84430592989329,102.94885174951673
2.6304876804351807,-0.6975077879,0.48873401604999994,10.0510513313,-0.025340000000000005,0.037660000000000006,0.34384000000000003,0.34682320683599016,-0.025198191075668133,-0.1348485013322119,0.5726861608106394,22.5,0.621958671114265,-0.0007288074649100491,0.05130816729615492,0.7813669766723997,4.556506514118309,3.7246742352089544,103.10950315889838
2.6448557376861572,-0.6508477471999999,0.61196437995,9.930213789999998,-0.025340000000000005,0.037660000000000006,0.34384000000000003,0.34682320683599016,-0.023212879051524585,-0.16951510359994926,0.5813909904549611,22.5,0.6184445557206016,0.011784231954867169,0.0667621488742813,0.7828986389402335,6.855019894768232,3.676652221918729,103.60689806118926
2.660891532897949,-0.6664010940999998,0.5581258714499999,9.8010013696,-0.027020000000000002,0.04522,0.32564000000000004,0.32987321564504146,0.012980886311707827,-0.20723603205867672,0.5878050754560403,22.5,0.6170552856638531,-0.006575754328875855,0.06155073866501602,0.7844813831182342,5.093809658128089,4.949491906353751,103.84471913072578
2.675037145614624,-0.75194450205,0.42173498325,9.8919286284,-0.027020000000000002,0.04522,0.32564000000000004,0.32987321564504146,0.017409659288643436,-0.22327124456137462,0.5908594016470304,22.5,0.6134024794406305,0.012715477604922205,0.06912567336762204,0.7866367370818873,7.158517075182493,3.715300604331103,104.33979280689056
2.689234733581543,-0.8853443619999999,0.37507494255,9.9098747979,-0.02646,0.055580000000000004,0.32844000000000007,0.3341587969813155,-0.0027488935718910697,-0.2339613862298399,0.5907066853374809,22.5,0.6110426298561351,-0.0022554028542387974,0.08016781064420275,0.7875245645648004,7.131870578851305,5.826951480999558,104.74745098449931
2.7033228874206543,-0.85962151905,0.35772697870000003,9.72861848595,-0.02646,0.055580000000000004,0.32578,0.3315446823582004,-0.0056505034533316425,-0.23671027980173098,0.5803219762881145,22.5,0.6083529056035214,0.015514461403793115,0.0691257167326222,0.7904983738233143,7.376689681033369,3.415553205824794,105.0578131299138
2.7179510593414307,-0.8751748659499998,0.30508488149999996,9.6837530622,-0.02478,0.051660000000000005,0.32578,0.33078000604631475,-0.016035212502697904,-0.22586742182371622,0.5681046715241543,22.5,0.6072048603263379,-0.0032252726564946945,0.06584826615115845,0.7918054439426707,5.781001439354723,4.880300377715705,105.28016653974059
2.7326462268829346,-0.9092725879999999,0.24825534474999997,9.742975421549998,-0.01386,0.046900000000000004,0.33278,0.33635433399913256,-0.02657263786161367,-0.1905899543177808,0.5763513522398275,23.5,0.6046438616417584,0.016549927247499013,0.059980700453141855,0.7940618464957218,6.626344070517145,2.6509094598618708,105.5780721544937
2.7468643188476562,-0.8841479507,0.17108681589999997,9.911669414849998,-0.01386,0.046900000000000004,0.33278,0.33635433399913256,0.014049900478554353,-0.12385292704464762,0.6006332454581986,22.5,0.6034050495774556,-0.0013527609371861327,0.05256931992347941,0.7956990528994351,4.715218396851669,3.760957750677484,105.80639530602886
2.7612645626068115,-0.9619146851999999,0.0897308475,9.77049288145,-0.01414,0.0567,0.3353,0.34035410912753794,0.03313943917224234,-0.047952921198544204,0.6042984368873867,22.5,0.5998370674718972,0.013345541614791746,0.06636955828504798,0.7972530782247067,7.010131818191401,3.3446664976845057,106.29080020991762
2.77527117729187,-1.1335997067499999,0.2895315346,9.8273224182,-0.01414,0.0567,0.3353,0.34035410912753794,0.028710666195306725,0.016493361431346415,0.5800165436690156,22.5,0.5981552447146642,-0.0026407414589803544,0.07769718028440814,0.7976004500254116,6.970463745480575,5.575795839865009,106.6042060757764
2.7932190895080566,-1.17667051355,0.30867411539999995,9.794421107449999,-0.013300000000000001,0.05642000000000001,0.3325000000000001,0.3375149721123495,0.0003054326190990077,0.08017606251348951,0.5036583888942637,22.5,0.5957772174006801,0.01624850416472369,0.07449025215843522,0.7995227924656586,7.975402352388888,3.5992291075909995,106.86653376454855
2.8073582649230957,-1.1629117836,0.39062828945,9.740582598949999,-0.0175,0.058660000000000004,0.33152000000000004,0.33712424415933073,-0.01786780821729195,0.12843441633113273,0.4356996311447345,22.5,0.5952567357521865,-0.003998343622059042,0.07434828936454724,0.8000785984254903,6.587865709447161,5.446175378696317,107.01534692908263
2.82236647605896,-1.0671988796,0.3900300838,9.73818977635,-0.0175,0.058660000000000004,0.33152000000000004,0.33712424415933073,-0.06307183584394509,0.1901318053891323,0.36682457553790826,22.5,0.5926693375898464,0.01448974581894204,0.07867164600759984,0.8014635834904601,8.25811421357993,4.015511441549622,107.32534944520789
2.837381362915039,-0.9750752094999998,0.2775674216,9.689136913049998,-0.022820000000000003,0.0609,0.32928,0.3356409998793354,-0.1345430687131129,0.22021691837038457,0.27641652028460195,22.5,0.5927900448409736,-0.0037046692301351694,0.06887215131784398,0.8023981959950955,6.116082257344049,5.025476514318007,107.3566820111722
2.85518479347229,-0.8506484342999999,0.2727817764,9.7806623775,-0.022820000000000003,0.0609,0.32928,0.3356409998793354,-0.16768250788535524,0.2073887483682262,0.3020728602889186,22.5,0.5900227217243319,0.013345278237080482,0.07643409806098732,0.8036497496119749,7.9858884271215365,3.9419561804553935,107.70460596573564
2.8693630695343018,-0.8530412569,0.28713871199999996,9.8620183459,-0.020300000000000002,0.06342,0.33362,0.3402006625507952,-0.1744020255055334,0.17608190491057793,0.3225368457685521,22.5,0.5891648187938375,0.00814629617077689,0.058988242209555466,0.8058156373733072,6.017548531564877,3.231979203243302,107.8257879520762
2.88421368598938,-0.6807580296999999,0.28055844984999995,9.88534836625,-0.025900000000000003,0.0637,0.32648,0.33364305837226704,-0.1658499121707612,0.13286318930806834,0.338877490890349,22.5,0.5859085899426866,0.017766603332300897,0.0755765691401489,0.8066496477619076,8.221689622565965,3.434019684223297,108.26145008636503
2.898334503173828,-0.62392849295,0.1890329854,9.81356368825,-0.025900000000000003,0.0637,0.32648,0.33364305837226704,-0.1467603734770732,0.07452555906015788,0.3445279943436807,22.5,0.5847738637767878,0.0028704964064038925,0.06241495402933949,0.8087865367372674,6.001960321039905,3.9194536058305283,108.46972623678565
2.912707805633545,-0.59162538785,0.24765713909999998,9.4983093107,-0.022820000000000003,0.06874000000000001,0.33152000000000004,0.33933972711723576,-0.15470162157364742,-0.0044287729769356115,0.3301726612460273,22.5,0.5816770062295119,0.018611204665710052,0.07340907307683942,0.8098867769477179,8.092553127384893,3.1674801514352926,108.85078091210019
2.9278810024261475,-0.7124629291499999,0.24705893344999996,9.7064848769,-0.022820000000000003,0.06874000000000001,0.33152000000000004,0.33933972711723576,-0.1499674159776128,-0.06261368691529658,0.28970283921540885,22.5,0.5779748212477505,0.013996290828887948,0.08977685787112447,0.810980471797843,9.342045367069225,4.650422074052808,109.42625679366851
2.9418935775756836,-0.69690958225,0.28295127244999996,9.8727860476,-0.025060000000000002,0.07658000000000001,0.33026000000000005,0.33994730121005523,-0.13209960776032081,-0.07651087108430142,0.2562579674240675,22.5,0.5760047746229779,0.02684334279329304,0.07528074525104783,0.8135298052030184,8.832849402244946,2.46725513637174,109.59118945336186
2.956308364868164,-0.64067825115,0.46600220135,9.93559764085,-0.025060000000000002,0.07658000000000001,0.33026000000000005,0.33994730121005523,-0.10079276430267253,-0.06307183584394509,0.22311852825182513,22.5,0.5730824336862903,0.02785300776103292,0.0944959514742342,0.8135546996446162,10.722287633677793,3.6113400503749746,110.01591467268642
2.970181703567505,-0.6640082714999999,0.52821558895,9.869795019349999,-0.024220000000000002,0.07098,0.32354,0.33211880464677096,-0.06795875774952921,-0.039553524173321496,0.1824959899116571,22.5,0.5737472756424624,0.01584329256363971,0.07864326753976608,0.815094037669436,8.435042820943817,3.693274731200359,109.9887749282076
2.984895944595337,-0.6987041992,0.5192425042,9.91884788265,-0.028140000000000005,0.08218,0.31164000000000003,0.32351955365943497,-0.0476474885794452,-0.025809056313866152,0.15302174216860284,22.5,0.5706959632667632,0.028369435556225103,0.09375468177029717,0.8152983210355538,10.696088502290735,3.482962470484919,110.3433229874882
2.999175786972046,-0.67896341275,0.65742800935,10.03729260135,-0.028140000000000005,0.08218,0.31164000000000003,0.32351955365943497,-0.029932396671702752,-0.038637226316024474,0.11896600513906351,22.5,0.5664182441592279,0.03322421802047276,0.11194981966568605,0.8158025262876585,12.760640246524812,4.164027979346755,110.9207089467546
3.013359546661377,-0.6945167596499999,0.5946164160999999,10.103693428499998,-0.02254,0.08498,0.33026000000000005,0.3417620804009714,-0.016493361431346415,-0.05925392810520749,0.09025533894375677,22.5,0.5674672011267416,0.0257917973482831,0.09392404460222276,0.8176148437256302,10.558539098570614,3.693673324468496,110.81610497467965
3.0277817249298096,-0.7322037156000001,0.51266224205,10.143773207049998,-0.02254,0.08498,0.33026000000000005,0.3417620804009714,-0.004123340357836604,-0.06520986417763815,0.08139779298988555,22.5,0.5649464640000669,0.03663333764176402,0.08252280107435457,0.8201728346451668,10.186618394322728,1.8997371080324208,111.0501158108957
3.041788101196289,-0.7764709337,0.5790630692,10.045069274799998,-0.02646,0.08302000000000001,0.32242000000000004,0.33398668895631156,0.007330382858376185,-0.051770828937281806,0.0919352183488013,22.5,0.5634728257138176,0.028429612988942983,0.10044413955372115,0.819512725109682,11.367819341278897,3.8186236940877176,111.35766913869011
3.0558574199676514,-0.79142607495,0.5575276658,9.823134978649998,-0.02646,0.08302000000000001,0.32242000000000004,0.33398668895631156,0.01756237559819294,-0.02657263786161367,0.09483682823024189,22.5,0.5640489110520925,0.015156543334719327,0.08709340311272916,0.8209956420525842,9.238082717784662,4.207168030808107,111.35956778686725
3.071362257003784,-0.83569329305,0.59042897655,9.9206424996,-0.01694,0.07518000000000001,0.32676000000000005,0.3357247289074787,0.016340645121796914,-0.004886921905584123,0.07269296334556383,22.5,0.5619878267540219,0.03468030437958391,0.08789037873142456,0.8217312458431147,10.57863094402173,2.3951377888818755,111.48476930493818
3.085376739501953,-0.9343972252999999,0.5706881900999999,9.900303507499999,-0.01694,0.07518000000000001,0.32676000000000005,0.3357247289074787,0.01710422666954443,0.04642575810304917,0.02061670178918302,22.5,0.5633891203034338,0.015132981132767133,0.0844299234889574,0.8217270106461192,8.986065392218569,4.029118587164536,111.44642388188976
3.0995588302612305,-0.9032905314999999,0.45284167705,9.993025383249998,-0.01974,0.08554,0.33236,0.34375853269409906,-0.0119118721448613,0.0952949771588904,-0.008093964406123704,22.5,0.5611475958423693,0.030733418683281076,0.09600932721901705,0.821554040671287,11.102309577783465,3.2821200537615223,111.65043367571711
3.1134815216064453,-0.8751748659499998,0.35413774480000004,10.0115697584,-0.023940000000000003,0.08498,0.31500000000000006,0.3271386923003759,-0.02977968036215325,0.12919799787888026,-0.023671027980173096,22.5,0.5614657211655155,0.01213724642079213,0.0922499342379681,0.8222523218808805,9.550449351468487,4.797283267599693,111.74743422791623
3.127641439437866,-0.6879364974999999,0.29371897415,9.9625168951,-0.023940000000000003,0.08498,0.31500000000000006,0.3271386923003759,-0.014049900478554353,0.12202033133005358,-0.02657263786161367,22.5,0.5592052964602113,0.030804851759556353,0.09437101459243474,0.8230641585707115,10.957761520165553,3.1434942063520808,111.9157364758086
3.1418778896331787,-0.5994020613,0.22492532440000002,9.8799645154,-0.024220000000000002,0.08806,0.32816,0.34063199732262384,0.008704829644321718,0.07635815477475191,-0.02733621940936119,22.5,0.5589080400997788,0.02264334161522771,0.07890097961206934,0.8251567834106293,8.958772905619568,2.913495038261406,112.00592666220093
3.155721426010132,-0.5946164160999999,0.24346969954999997,9.98943614935,-0.024220000000000002,0.08806,0.32816,0.34063199732262384,0.0027488935718910697,0.019853120241435502,-0.01618792881224741,22.5,0.5560554269436812,0.0355947532624089,0.09355199238880135,0.8250959946738043,11.195855915119632,2.5965025830701913,112.30025822380262
3.1707355976104736,-0.7591229698499998,0.42293139455,9.957133044249998,-0.02338,0.08106000000000001,0.32872,0.33937322581488366,-0.016035212502697904,0.01618792881224741,-0.01145372321621279,22.5,0.557423177384716,0.017689112910507978,0.08529930279798284,0.8256455205116446,9.260548683283394,3.7777115106345307,112.25664547845821
3.185084104537964,-0.8512466399499998,0.4073780476499999,9.931410201299999,-0.02338,0.08106000000000001,0.32872,0.33937322581488366,-0.01710422666954443,0.061544672748450054,-0.016493361431346415,22.5,0.5545667561646773,0.030972578395721134,0.09889071306513487,0.8256615766850105,11.419605707489735,3.3558568064230228,112.5599995656665
3.1996829509735107,-0.7489534737999999,0.39242290639999994,9.869795019349999,-0.02478,0.08162,0.33432000000000006,0.3450300497058192,-0.002138028333693054,0.10430523942231112,-0.020311269170084013,22.5,0.5560288988796566,0.016898908818156727,0.08521274302763487,0.8266105969059063,9.208391870169052,3.8315804383990852,112.45429392242896
3.213923215866089,-0.6245266985999999,0.28414768374999994,9.967900745949999,-0.029540000000000004,0.08106000000000001,0.32466,0.33592774639794193,-0.0056505034533316425,0.1108720407329398,-0.015882496193148403,22.5,0.5522689041962021,0.032633665992618834,0.095109330606033,0.8275797946624124,11.169883858240963,2.9255288191584694,112.85338538517668
3.228318214416504,-0.66819571105,0.29132615154999997,9.925428144799998,-0.029540000000000004,0.08106000000000001,0.32466,0.33592774639794193,0.010842857978014774,0.10476338835095964,-0.015729779883598898,22.5,0.5532601049015418,0.015176812269576328,0.08590230254794799,0.8284284610698922,9.178543952723164,4.008635709957555,112.84850041868606
3.2422900199890137,-0.7591229698499998,0.44566320924999997,9.927820967399999,-0.030940000000000002,0.08274000000000001,0.32858000000000004,0.3402469802951968,0.023671027980173096,0.07681630370340044,-0.0319177086958463,22.5,0.5502346302625911,0.027484310137941358,0.10126066738431978,0.8283916595408921,11.44598178714876,3.7784557999409336,113.19296102017414
3.256476402282715,-0.85962151905,0.4851447821499999,9.9577312499,-0.030940000000000002,0.08274000000000001,0.32858000000000004,0.3402469802951968,0.04077525464971753,0.04123340357836604,-0.05757404870016296,22.5,0.5517428362565304,0.010839260859192984,0.0912106029181202,0.8289408778549522,9.423928419184454,4.742593367650158,113.09567939890734
3.270843029022217,-0.8333004704499999,0.43728833014999996,9.95593663295,-0.027300000000000005,0.07574000000000002,0.33852000000000004,0.3479621071323716,0.04917465167494024,0.004886921905584123,-0.09239336727744982,22.5,0.5514473968971835,0.019550001699630094,0.07510747855963058,0.8305916159902407,8.425006807241408,2.8866084896983355,113.05060204808147
3.284719228744507,-0.8159525066,0.39840496289999994,9.93559764085,-0.027300000000000005,0.07574000000000002,0.33852000000000004,0.3479621071323716,0.05558873667601941,-0.0238237442897226,-0.12446379228284564,22.5,0.5500064159826716,0.018024939673394483,0.09506945130028117,0.8295359204742915,10.256304423757497,4.282430825305237,113.29342640467999
3.2996785640716553,-0.73998038905,0.3176472001499999,9.909276592249999,-0.028980000000000002,0.08218,0.33320000000000005,0.3444062031961678,0.041691552507014555,-0.039858956792420505,-0.16035212502697901,22.5,0.5502893764343089,0.01711009657537968,0.07712721548320575,0.8312281512379907,8.469702521655831,3.2354808732648452,113.22895636149912
3.3137428760528564,-0.6837490579499998,0.31405796625,9.84945602725,-0.028980000000000002,0.08218,0.33320000000000005,0.3444062031961678,0.005192354524683131,-0.02504547476611863,-0.18875735860318676,22.5,0.5482404168313281,0.02716545075816949,0.09406499425898407,0.8305698408278345,10.740163412195615,3.325873790342113,113.45691880490241
3.3279457092285156,-0.6723831505999999,0.2835494781,9.8404829425,-0.027020000000000002,0.07798000000000001,0.32438000000000006,0.3347138258273776,-0.03588833274413341,-0.007330382858376185,-0.21441369860750342,22.5,0.5501589870627865,0.01327953818891421,0.08015370495941194,0.8310981448666681,8.520725495634391,3.7912410470067868,113.27609439953359
3.3421411514282227,-0.7806583732500001,0.26141586904999997,9.8249295956,-0.03262,0.06902000000000001,0.33474,0.3433346653048597,-0.06398813370124211,0.01069014166846527,-0.25671611635271596,22.5,0.5502818367396165,-0.006262883918109492,0.08094289692351166,0.8310228179040164,7.369895827427237,5.709918964109892,113.34504758538033
3.3561785221099854,-0.8679963981499998,0.20997018315,9.87458066455,-0.03262,0.06902000000000001,0.33474,0.3433346653048597,-0.04948008429403925,0.0033597588100890844,-0.2939788958827949,22.5,0.5495309491828125,0.012838125228905563,0.08244533997611136,0.831296387786611,8.716583651854426,3.9719422179379085,113.36920508366228
3.370422840118408,-0.8620143416499999,0.2967100024,9.807581631749999,-0.02926,0.07742,0.32256000000000007,0.3330089452251997,-0.05451972250917287,-0.01069014166846527,-0.35689801541719046,22.5,0.5478873687732783,0.021368858564216393,0.09952351300630707,0.8303360002921948,10.9063389298392,4.218986851811257,113.56624041008584
3.3845043182373047,-0.8817551281,0.36909288605,9.9014999188,-0.02926,0.07742,0.32256000000000007,0.3330089452251997,-0.060933807510252035,-0.020922134408282028,-0.41386119887915546,22.5,0.550944714122374,0.0077208118110191366,0.08509905531676488,0.8301556852963116,8.64382861704882,4.643219702051668,113.20948111706679
3.399270534515381,-0.8500502286499999,0.53539405675,10.04207824655,-0.030100000000000002,0.07126,0.33026000000000005,0.3391985630865792,-0.09407324668249437,-0.009010262263420728,-0.4680754887692293,22.5,0.5498625591084024,0.024650959950560977,0.0930322584282233,0.8296918073333126,10.476288879234827,3.5204340776422995,113.25550020225191
3.4136412143707275,-0.7465606511999999,0.5868397426499999,9.993025383249998,-0.030100000000000002,0.07126,0.33026000000000005,0.3391985630865792,-0.14263703311923662,0.003970624048287101,-0.5461135229490257,22.5,0.5534814347445975,0.007462865871226131,0.08175946787719146,0.828805161927994,8.29254091680567,4.481325894394999,112.85451841259255
3.4277772903442383,-0.5826523030999999,0.5778666578999999,9.88175913235,-0.028140000000000005,0.0763,0.31948000000000004,0.32966804516058273,-0.1699732525285978,-0.02306016274197508,-0.5945245930762185,22.5,0.5535926125226557,0.02431262162689146,0.09034593906794774,0.8275153938652132,10.181103119550539,3.4278480704197984,112.74185544643704
3.442152976989746,-0.7441678286,0.5240281494,9.772287498399999,-0.028140000000000005,0.0763,0.31948000000000004,0.32966804516058273,-0.16096299026517705,-0.07315111227421234,-0.6149885785558521,22.5,0.5555896632361839,0.004939971898644554,0.09122559564567892,0.8264221763008515,9.030145644101509,5.347899867469895,112.59806217832076
3.4560348987579346,-0.8350950873999999,0.57607204095,9.773483909699998,-0.039060000000000004,0.08134000000000001,0.31458,0.3272651151589488,-0.15470162157364742,-0.10613783513690518,-0.6511823439190844,22.5,0.5553465633653353,0.01874814957327565,0.10413292690215985,0.8248606154864463,11.14595105129177,4.860528082757703,112.57284888742912
3.4715914726257324,-0.7908278692999998,0.64067825115,9.75972517975,-0.032060000000000005,0.07938,0.32536000000000004,0.336434477424654,-0.157908664074187,-0.07406741013150937,-0.7166976407158216,22.5,0.5591907388374272,0.011808986696983156,0.08531322395135119,0.8245531633864911,8.87870567343702,4.355145587724106,112.0500601099225
3.4858314990997314,-0.6843472635999999,0.7884350467,9.549754996599999,-0.032060000000000005,0.07938,0.32536000000000004,0.336434477424654,-0.18875735860318676,-0.026114488932965158,-0.7594582073896826,22.5,0.5598562665938149,0.024931141501221,0.09870318802804337,0.8223120329973179,10.994029960673203,3.986236666149113,111.88720891071338
3.502760171890259,-0.6999006105,0.5748756296499999,9.475577496,-0.032060000000000005,0.07658000000000001,0.32676000000000005,0.33714156907744264,-0.22586742182371622,0.012828170002158324,-0.7640396966761678,22.5,0.5642155177670838,0.009167940759614994,0.08503778647078773,0.8211853464627815,8.656036461105035,4.640421506672179,111.36745752385306
3.517388105392456,-0.79860454275,0.5306084115499999,9.629914553699999,-0.032060000000000005,0.07658000000000001,0.32676000000000005,0.33714156907744264,-0.20677788313002823,0.1148426647812269,-0.7454083069111282,22.5,0.5645574668141585,0.022106439464448242,0.09817845714981467,0.8192357185513013,10.739443491408903,4.280192678818631,111.25894826100712
3.531383991241455,-0.8536394625499999,0.5718846013999999,9.775278526649998,-0.033460000000000004,0.07238000000000001,0.32592000000000004,0.3355328335647646,-0.15378532371635037,0.1472185224057217,-0.7710646469154449,22.5,0.5691332767893743,0.004424973399113022,0.08694220695712207,0.817623865546274,8.501313492498827,5.262995470888914,110.70927706215993
3.5456056594848633,-0.8745766602999999,0.77108708285,9.7375915707,-0.034300000000000004,0.06930000000000001,0.31976000000000004,0.3289763480859985,-0.099723750135826,0.20097466336714706,-0.8367326600217316,22.5,0.5700160088748207,0.017479682292095778,0.10065484660601326,0.8152575128069092,10.645684435156518,4.94784322194775,110.53991679110709
3.55983829498291,-0.8488538173499999,0.65264236415,9.81834933345,-0.034300000000000004,0.06930000000000001,0.31976000000000004,0.3289763480859985,-0.10965031025654376,0.197614904557058,-0.916908722535221,22.5,0.5751557674169933,0.003019498248921177,0.0860598406027362,0.8134988811748457,8.287009665640955,5.398538035600729,109.8696265352921
3.57401442527771,-0.79980095405,0.8213363574499999,9.692127941299999,-0.03962,0.07434,0.32718,0.3378504586351778,-0.17180584824319184,0.1502728485967118,-0.9520334737316071,22.5,0.5765069163103603,0.015398755475889014,0.09997930113627254,0.8108062611502302,10.405914766833408,5.181251699179054,109.64424426065851
3.5884618759155273,-0.7076772839499998,0.9355936366,9.668199715299998,-0.03962,0.07434,0.32718,0.3378504586351778,-0.17150041562409285,0.11392636692392988,-0.9743300549258345,22.5,0.5751942590798312,0.030987095028570066,0.09687317499299657,0.8116692381937796,11.143487079436007,3.5052067433895,109.69500601258733
3.602476119995117,-0.6017948838999999,0.9086743823499999,9.799206752649999,-0.04578,0.06622000000000001,0.33432000000000006,0.3438760811687839,-0.14034628847599406,0.07971791358484101,-0.9763153669499781,22.5,0.579554637271533,0.009809586341947877,0.0969539366796502,0.8090859834375949,9.732448026750415,5.538040665421122,109.24320928552272
3.6164145469665527,-0.48693939909999995,0.6867400861999999,9.92243711655,-0.04578,0.06622000000000001,0.33432000000000006,0.3438760811687839,-0.10888672870879625,0.05314527572322734,-0.9621127501618743,22.5,0.5834642067240945,0.009510572584817484,0.07726754899120424,0.8083989079370555,7.839940547278504,4.289100303807282,108.65409121468926
3.6305863857269287,-0.4097708702499999,0.6352944002999998,9.92243711655,-0.04914000000000001,0.06398000000000001,0.32480000000000003,0.3346688213742057,-0.07559457322700441,0.028099800957108706,-0.9115636517009885,22.5,0.5839397342925503,0.01793345780632051,0.09455981622331537,0.806071472613482,10.018556289662707,4.676122992146668,108.56894245349415
3.6445255279541016,-0.4414757697,0.98524470555,9.80877804305,-0.04914000000000001,0.06398000000000001,0.32480000000000003,0.3346688213742057,-0.048258353817643214,0.024434609527920616,-0.8791877940764937,22.5,0.580771833622165,0.01617102912490643,0.11311150906450626,0.806007668453185,11.66830470677906,6.045373552461693,109.06872228866258
3.6614768505096436,-0.5706881900999999,1.2143574695,9.66161945315,-0.0441,0.062020000000000006,0.32116,0.33005308057947286,-0.0035124751196385882,0.061697389057999555,-0.9243918217031468,22.5,0.585577942310229,0.011820876689219034,0.09419078251860691,0.8050384070605258,9.56650380066761,5.237224068331001,108.37490958281178
3.675504207611084,-0.6580262149999999,1.1641081949,9.6981099978,-0.042140000000000004,0.04942,0.33208000000000004,0.33837145624298753,0.023212879051524585,0.06291911953439559,-1.029307926363656,22.5,0.5906677385320478,0.0011184505901554855,0.07751654495460963,0.8031821443383895,7.258797670551139,5.150743999659146,107.66470047312123
3.689505100250244,-0.69930240485,0.9248259349,9.725627457699998,-0.042140000000000004,0.04942,0.33208000000000004,0.33837145624298753,0.0033597588100890844,0.029474247743054245,-1.1707232290064964,22.5,0.5929468401302038,0.009572606680024754,0.09515797377377647,0.7995419751384072,9.456638244329367,5.59752091767377,107.34148629620839
3.704582452774048,-0.5312066172,0.7800601676,9.7076812882,-0.04186000000000001,0.06174000000000001,0.32522,0.33366470535554105,-0.08124507668033605,-0.031001410838549282,-1.1884383209142388,22.5,0.5978945169821555,0.010924756449971611,0.07537647564915043,0.7979481080733865,7.684063848287541,4.169057341258748,106.5923983507143
3.7220797538757324,-0.30089744194999996,0.8446663778,9.741180804599999,-0.04186000000000001,0.06174000000000001,0.32522,0.33366470535554105,-0.09437867930159338,-0.049327367984489744,-1.1737775551974867,22.5,0.6000201932871441,0.024143676059937134,0.08915386386754967,0.7946347834769489,9.849810359050887,3.9345806998324084,106.22704389435373
3.7360713481903076,-0.2620140747,0.8859425676499999,9.90329453575,-0.04438,0.04438,0.31962,0.3257239831513793,-0.09056077156285579,-0.030085112981252257,-1.122006726260205,22.5,0.604506693107919,0.009937256620638707,0.0743868439014965,0.7930570637557919,7.49036059542835,4.253710185033215,105.64574392787006
3.7499918937683105,-0.37328032559999996,1.0384850084,9.856634495049999,-0.04242,0.04046,0.31920000000000004,0.32453829974288095,-0.10430523942231112,0.01710422666954443,-1.0968085351845367,22.5,0.605621184405211,0.017497475821939158,0.09164461471032602,0.7902645657841973,9.591381537288928,4.781067888406972,105.47166845880763
3.7643520832061768,-0.50668018555,1.38723890235,9.75613594585,-0.04242,0.04046,0.31920000000000004,0.32453829974288095,-0.119118721448613,0.05849034655745997,-1.1079568257816503,22.5,0.6063054597234148,0.007292174565502566,0.07468364006799909,0.7916835653251105,7.324735718643147,4.532008092284693,105.39732991746284
3.7783539295196533,-0.6143572025499999,1.4518451125499998,9.6454679006,-0.04186000000000001,0.03122,0.3199,0.32413416666559547,-0.11606439525762292,0.08536841703817265,-1.1633928461481204,22.5,0.6089348452347261,0.011487041804396919,0.09334080064045941,0.7876254802032133,9.309389300785975,5.4848159958791545,105.02972221539244
3.792865037918091,-0.5922235935,1.1353943237,9.864411168499998,-0.04186000000000001,0.03122,0.3199,0.32413416666559547,-0.1269072532356377,0.05497787143782139,-1.2218831927055802,22.5,0.6144463516622065,0.0066364098097789195,0.07370545274101224,0.7854802004061484,7.142864150018937,4.597219751875698,104.218090981575
3.806746006011963,-0.40319060809999996,0.9391828704999999,10.00498949625,-0.0371,0.030100000000000002,0.32816,0.33161936855376833,-0.1545489052640979,-0.007483099167925688,-1.2301298734212534,22.5,0.6192067000459454,0.008142494931432034,0.05342681027369144,0.7833660308811463,5.3893533952812085,3.061473465347017,103.49535801589435
3.8214221000671387,-0.2237289131,1.1186445655,10.134800122299998,-0.0371,0.030100000000000002,0.32816,0.33161936855376833,-0.17852536586337,-0.06429356632034113,-1.214247377228105,22.5,0.6222419402868556,0.016577758534601576,0.07015463815151549,0.7794988597912429,7.483918591301027,3.523712787977734,103.03267123001312
3.83545184135437,-0.0370887503,1.1341979124,10.161719376549998,-0.035980000000000005,0.023660000000000004,0.31556,0.3184846457837489,-0.17745635169652346,-0.13240504037941983,-1.1919507960338775,22.5,0.6243308148779962,0.030901016931468833,0.056217895373096294,0.7785214890972487,7.247134467103389,1.2653608253546924,102.62479894031581
3.849731683731079,-0.08554340794999998,1.2765708571,10.02772131095,-0.035980000000000005,0.023660000000000004,0.31556,0.3184846457837489,-0.13377948716536536,-0.2142609822979539,-1.1627819809099222,22.5,0.6271036410045496,0.028019454983601387,0.0746228953864585,0.7748466668092472,8.683429948266776,2.8757948022510607,102.25008234769662
3.8637287616729736,-0.36430724085,1.57746829905,9.76092159105,-0.033460000000000004,0.019180000000000003,0.32802000000000003,0.3302795246454131,-0.050396382151336266,-0.27183503099811684,-1.153008137098754,22.5,0.6291235776543702,0.028415448465515882,0.09287747170882855,0.7712132400165629,10.340035700537339,4.1882732253331625,101.96686044736975
3.877598285675049,-0.5156532703,1.7240286832999998,9.75733235715,-0.024220000000000002,0.00238,0.32634,0.3272461892826256,-0.02260201381332657,-0.2542726553999239,-1.1983648810349568,22.5,0.6346963139662963,0.041827128786049085,0.07752284973775316,0.7677247476170412,9.917392237354925,1.9589513516236352,101.00728163513008
3.892972469329834,-0.5156532703,1.5595221295499997,9.830911652099998,-0.024220000000000002,0.00238,0.32634,0.3272461892826256,-0.0752891406079054,-0.14508049407202864,-1.2597568374738572,23.5,0.6403622196899353,0.02201307989670678,0.08070764596167397,0.7635037182558873,8.73146134448851,3.999634949232297,100.33132414033142
3.906710147857666,-0.3391826035499999,1.19940232825,9.80159957525,-0.022820000000000003,0.0054600000000000004,0.32018,0.32103862135263417,-0.08765916168141522,-0.06673702727313319,-1.264796475688991,23.5,0.6459031313906592,0.028457038298372584,0.061869121581839825,0.7603759291467064,7.523713254866236,2.100178662351216,99.4454736822255
3.9212892055511475,-0.09511469834999998,0.96131647955,10.0582297991,-0.022820000000000003,0.0054600000000000004,0.32018,0.32103862135263417,-0.07956519727529152,-0.057879481319261954,-1.209360455322521,22.5,0.6503714995939517,0.021256952383224594,0.042856560760237195,0.7581084155258375,5.316382619831404,1.3474471991797865,98.8108205347946
3.935920476913452,-0.0191425808,0.9098707936499998,10.12941627145,-0.028140000000000005,-0.00322,0.32718,0.32840368511939694,-0.018020524526841455,-0.08491026810952414,-1.131475137452274,22.5,0.6515222035117831,0.014821565936297857,0.06061115014803046,0.7560591431839705,6.381171104684526,3.242784723413898,98.67559752047639
3.9501521587371826,-0.04127618984999999,1.25204442545,9.839884736850001,-0.028140000000000005,-0.00322,0.32718,0.32840368511939694,0.03787364476827696,-0.08231409084718258,-1.0603093372022052,22.5,0.654072572096253,0.03386091233072502,0.054418154841543054,0.7537115983392884,7.258828115561648,1.1542511474702453,98.17018443588024
3.9642703533172607,-0.2560320182,1.79162592175,9.64008404975,-0.027020000000000002,-0.0021000000000000003,0.3269,0.3280214938079516,0.07803803417979646,-0.023671027980173096,-1.0453431388663539,22.5,0.6564085066710109,0.03609503960947911,0.07424583978351788,0.749875040096924,9.142221997135918,2.4838431093386624,97.80358749508731
3.9784460067749023,-0.57846486355,1.9136598743499997,9.578468867799998,-0.02142,-0.00882,0.32270000000000004,0.32353036766275906,0.1304197283552763,0.06902777191637574,-1.1064296626861554,22.5,0.6595208407799575,0.04265317173320468,0.09355190979123193,0.744621385465398,11.299312666263006,3.432806690626139,97.27623533827776
3.992769718170166,-0.6975077879,1.3950155758,9.74177901025,-0.02142,-0.00882,0.32270000000000004,0.32353036766275906,0.12568552275924166,0.22739458491921122,-1.196074136391714,22.5,0.6663698367874015,0.03155706498391112,0.07873378760129035,0.7407809277779013,9.1474412071479,3.335231301788033,96.3209224296494
4.008086919784546,-0.44327038664999996,0.9990034354999999,9.999605645399999,-0.014700000000000001,-0.023100000000000002,0.33222,0.3333464090102067,0.03390302071998985,0.24617869099380021,-1.252426454615481,22.5,0.6729488665400786,0.02974311413904486,0.06060788449080581,0.736601557506692,7.435567871968702,2.1636800499018696,95.31183963826047
4.025421380996704,0.029910282499999996,1.0360921857999998,10.0845508477,-0.014700000000000001,-0.023100000000000002,0.33222,0.3333464090102067,-0.02229658119422756,0.15317445847815236,-1.2392928519942237,22.5,0.677832653796606,0.035279976783166224,0.042481086049829885,0.7331395324310761,6.322167274595599,0.3357462066329379,94.50797079978327
4.039332389831543,0.11365907349999999,1.1647064005499999,9.94397251995,-0.01694,-0.028700000000000003,0.32592000000000004,0.32761944386742375,-0.028863382504856226,0.11621711156717243,-1.1743884204356847,22.5,0.6772686048455838,0.03248173358255147,0.06037734398173397,0.7325344703204756,7.615942926772481,1.9596329891445174,94.62026418969822
4.054036378860474,0.1052841944,1.2705888005999997,9.839884736850001,-0.01694,-0.028700000000000003,0.32592000000000004,0.32761944386742375,0.04123340357836604,0.0832303887044796,-1.1174252369737196,22.5,0.6805274588603152,0.04521584539125142,0.04606950712564944,0.7298736230169415,7.399779859429617,-0.18910945001008334,93.99538884039058
4.06827712059021,-0.013758729949999998,1.3028919057,9.7842516114,-0.01946,-0.02842,0.33698,0.3387357501061853,0.1226311965682516,0.08689558013366769,-1.13269686792867,22.5,0.6823699794538912,0.03410369667018513,0.06302264801697413,0.7274862849913066,7.95125218532719,2.085429944763762,93.810704429606
4.083982944488525,-0.20279171534999998,1.2927224096499998,9.768100058849999,-0.018340000000000002,-0.04018000000000001,0.33418000000000003,0.33708613201969617,0.20357084062948863,-0.00473420559603462,-1.20050290936865,22.5,0.685911233292582,0.041097610598619536,0.045211145598865576,0.7251156588846854,7.004402132947079,0.13869163414957342,93.1915179780731
4.098083019256592,-0.35832518435,1.45782716905,9.80159957525,-0.018340000000000002,-0.04018000000000001,0.33418000000000003,0.33708613201969617,0.20082194705759757,-0.0355829001250344,-1.2793045250961939,22.5,0.6890675168536989,0.03376886515520971,0.06406019859445838,0.721069977130684,7.99176641379781,2.2685988332465143,92.75865220363396
4.112188339233398,-0.2715853651,1.5667005973499997,9.834500885999999,0.0035000000000000005,-0.04746000000000001,0.32564000000000004,0.3290989383149086,0.13301590561761786,-0.02657263786161367,-1.353677367846802,22.5,0.6959866246237958,0.051115208704091294,0.05609010636407915,0.7140334402196995,8.699568628796449,0.29106329438648443,91.48871430681717
4.127336025238037,-0.14177473905,1.28075829665,10.04925671435,0.0035000000000000005,-0.04746000000000001,0.32564000000000004,0.3290989383149086,0.08521570072862314,-0.008857545953871223,-1.3950634877347177,22.5,0.7044145136077339,0.046175842066435886,0.03894227103020403,0.7072138885480442,6.90026646241863,-0.5987169466780556,90.1911477495152
4.141631364822388,-0.07836494014999999,1.11924277115,10.0474620974,0.004900000000000001,-0.04942,0.33558000000000004,0.33923484903529594,0.08231409084718258,-0.03298672286269283,-1.380402722017965,22.5,0.7115094771030966,0.02693313375581992,0.042488781127352444,0.7008734363470204,5.618838838387074,1.3012362628672394,89.20093542020865
4.1557652950286865,0.023330020349999998,0.9649057134499999,9.887142983199999,0.004900000000000001,-0.04942,0.33558000000000004,0.33923484903529594,0.11224648751888533,-0.04428772976935611,-1.3449725382024802,22.5,0.7174705743818447,0.04150015587563094,0.02935285475509694,0.694731690565653,5.759159566875185,-0.8906029446360397,88.1102396900122
4.170793294906616,0.23449661479999998,0.9702895642999998,9.746564655449998,0.0071400000000000005,-0.055020000000000006,0.32508000000000004,0.3297805124624559,0.14477506145292962,-0.0357356164345839,-1.3054190140291588,22.5,0.7200111300768786,0.052424857606978396,0.013283027572035555,0.6918519842053101,5.39416542860574,-3.0617751705321288,87.5705443185412
4.1852569580078125,0.2703889538,1.2167502921,9.6574320136,0.007700000000000001,-0.07154,0.3269,0.33472506867577156,0.1626428696702216,-0.013286318930806834,-1.274875752119258,22.5,0.7226547177283156,0.04716376015433494,0.03281788765353269,0.688816902320982,6.5110429239113925,-1.0051563339877432,87.19619788827664
4.1996684074401855,0.10707881135,1.3591232368,9.7639126193,0.007700000000000001,-0.07154,0.3269,0.33472506867577156,0.17150041562409285,0.003970624048287101,-1.2452487880666545,22.5,0.7252168332745986,0.052134791123193795,0.05267538077760116,0.6845201330491593,8.495668411797446,0.2880567399845418,86.71425117018974
4.213648796081543,0.029312076849999997,1.0480562988,9.97029356855,0.01694,-0.08246,0.3295600000000001,0.34014174809923,0.1543961889545484,0.02703078679026218,-1.2421944618756644,22.5,0.7323156964980885,0.05128267904106746,0.034897160925661044,0.6781342018009555,7.034153188937761,-1.0566857379400574,85.53525720679625
4.228498697280884,0.1363908882,0.77946196195,9.9960164115,0.01694,-0.08246,0.3295600000000001,0.34014174809923,0.07941248096574201,0.03298672286269283,-1.2026409377023426,22.5,0.7375002698858086,0.03657604573734079,0.022342195369574606,0.6739854383461464,4.822982652474349,-0.9367529110575774,84.80756976879601
4.242537260055542,0.26380869165,0.9176474671,9.869795019349999,0.023660000000000004,-0.08666000000000001,0.32046,0.33281280444117534,0.0003054326190990077,0.03375030441044035,-1.1391109529297492,22.5,0.7435244415309891,0.05320692258517291,0.013347197440485062,0.6664550101511211,5.568662120066941,-2.9274896794004004,83.60024929185845
4.257280111312866,0.31884361145,1.12163559375,9.6933243526,0.023660000000000004,-0.08666000000000001,0.32046,0.33281280444117534,-0.0016798794050445422,0.036193765363232405,-1.0856602445874228,22.5,0.7457238658669614,0.047836993097229434,0.03271443377258607,0.663729842474172,6.591275443679817,-0.8428405274712042,83.29268350477426
4.271612644195557,0.25423740125,1.28554394185,9.56829937175,0.027300000000000005,-0.10010000000000001,0.31346,0.3301855108874404,0.02428189321837111,0.0319177086958463,-1.0853548119683238,22.5,0.7510490242748638,0.06650602265984651,0.028441417426355926,0.6562723503702733,7.895439535216222,-2.55453804783386,82.11809896810485
4.286329746246338,0.16271193679999998,1.1533404932,9.522237536699999,0.034300000000000004,-0.10206000000000001,0.31472,0.3326280385054754,0.02932153143350474,0.012064588454410803,-1.129031676499482,22.5,0.7565853358536204,0.04734760974862402,0.03397623105950609,0.6512929057999538,6.656004170249604,-0.5880075884101117,81.41165570585052
4.300295352935791,0.041874395499999995,1.1814561587499999,9.570093988699998,0.034300000000000004,-0.10206000000000001,0.31472,0.3326280385054754,-0.014813482026301873,-0.0025961772623415654,-1.1366674919769573,22.5,0.7649144245581277,0.06270158990949293,0.028028116332329243,0.640459880414528,7.580379405375503,-2.1455112412699133,79.73646277263838
4.314705848693848,0.10827522265,1.32382910345,9.740582598949999,0.033460000000000004,-0.10822000000000001,0.31122000000000005,0.33119333990888167,-0.02932153143350474,0.01893682238413848,-1.1212431447124573,22.5,0.7674652845728752,0.050112801218541274,0.04382470518222886,0.6376246069163245,7.6318770373812805,0.19260409681074844,79.45372773999553
4.329988956451416,0.24885355039999998,1.2275179938,9.830313446449999,0.033460000000000004,-0.10822000000000001,0.31122000000000005,0.33119333990888167,-0.09300423251564784,0.09712757287348445,-1.1018481733996703,22.5,0.7726219580408255,0.05985937626483105,0.0278936185138518,0.6314222921884768,7.341909832749484,-1.8619045047906297,78.39508943352885
4.344174385070801,0.46121655614999996,1.07497555305,9.94636534255,0.0413,-0.11550000000000002,0.32886000000000004,0.35099122439172187,-0.1624901533606721,0.15546520312139492,-1.093906925303096,22.5,0.7754703582597533,0.05081834601961465,0.010004836166056987,0.62925600706041,5.250762564982047,-2.776413280836985,77.987923309098
4.359061002731323,0.31226334929999994,1.0468598875,9.742975421549998,0.0413,-0.11550000000000002,0.32886000000000004,0.35099122439172187,-0.19120081955597884,0.1273654021642862,-1.0670288548223834,22.5,0.7771460246914809,0.044651153807276314,0.029013151924355985,0.6270634479742232,6.072879422546264,-0.6247255407381638,77.765579900181
4.373334884643555,0.13339985995,1.2119646469,9.598209654249999,0.05782000000000001,-0.11774000000000001,0.32270000000000004,0.34834056611310726,-0.16386460014661763,0.05910121179565799,-0.9892962532616859,22.5,0.7839607704802042,0.06036365708880247,0.0229538504390022,0.6174421916268551,7.070026272742247,-2.2094316686051956,76.31095075196878
4.38916540145874,0.56051869405,0.9649057134499999,9.63649481585,0.054180000000000006,-0.12026,0.31878,0.3449907656735177,-0.1298088631170783,0.016798794050445424,-0.9355401123002606,22.5,0.7880842913472262,0.06028008189388107,0.0032434556444368265,0.6126001481015897,5.694266103896339,-3.941789122820452,75.52174782176336
4.404266834259033,0.39421752335,1.2185449090499998,9.72502925205,0.054180000000000006,-0.12026,0.31878,0.3449907656735177,-0.1276708347833852,0.04917465167494024,-0.9230173749172013,22.5,0.7897562780981034,0.05588971546752619,0.02265681534224926,0.6104490393375495,6.6613793487250454,-1.8595126964818747,75.29686103285403
4.41834020614624,0.33140593009999997,1.3304093655999998,9.7938229018,0.06706000000000001,-0.12446,0.32928,0.3583471132854289,-0.12705996954518722,0.09422596299204387,-0.9030115383662163,22.5,0.7958756614511387,0.07251804451702072,0.01878540037464445,0.6008079339205701,7.945445083561851,-3.281240232893885,73.8704992116694
4.432331562042236,0.76989067155,1.36091785375,9.789635462249999,0.06706000000000001,-0.12446,0.32928,0.3583471132854289,-0.10766499823240021,0.11377365061438037,-0.9037751199139638,22.5,0.7975247463187949,0.08341381417421052,0.0031233750781160426,0.5974836057518009,7.8973605353206775,-5.4337559700744,73.30372852213304
4.446370363235474,0.7124629291499999,1.22333055425,9.80159957525,0.0637,-0.12418000000000001,0.3241,0.3528727425007491,-0.049938233222687756,0.08231409084718258,-0.9616546012332257,22.5,0.7981666811725556,0.06716350119649896,0.014211372299628617,0.5985123641750245,7.148076203845092,-3.3083938678966884,73.52274546493366
4.460896730422974,0.5294120002499999,1.1072786581499998,9.7555377402,0.0637,-0.12418000000000001,0.3241,0.3528727425007491,0.002138028333693054,0.03359758810089085,-1.0221302598148292,22.5,0.7999744376524964,0.047403626980322036,0.0145112888416895,0.5979826232825128,5.350641941132754,-1.9183787583107998,73.46673908137188
4.4747748374938965,0.40019957984999993,1.07258273045,9.668199715299998,0.06566000000000001,-0.12390000000000001,0.32746000000000003,0.35621973162642184,0.03451388595818787,0.00473420559603462,-1.0537425358915766,22.5,0.805476471262449,0.06576194245347003,0.010181821719856383,0.5888797429643888,6.7854331720635725,-3.500044564297134,72.1331360575017
4.489985942840576,0.20877377184999998,1.1874382152499998,9.52403215365,0.07014,-0.13706000000000002,0.3311,0.36514692001987364,0.052534410485029326,0.0038179077387375964,-0.9421069136108893,22.5,0.8075739240797579,0.05492751627638726,0.027186259906576596,0.5865732966769118,6.928748683114307,-1.1762618114124725,71.91360193943699
4.504059314727783,0.3415754261499999,1.24845519155,9.72622566335,0.07014,-0.13706000000000002,0.3311,0.36514692001987364,0.08063421144213803,0.009926560120717751,-0.9028588220566668,22.5,0.8120707218498767,0.07132345196639353,0.017446074143663986,0.5789211884279167,7.83031649522841,-3.109617469645871,70.7568932004073
4.518322229385376,0.6520441584999999,1.16949204575,9.90329453575,0.07826000000000001,-0.13762,0.32312,0.35981999166249784,0.10231992739816759,0.008857545953871223,-0.890794233602256,22.5,0.813849110498734,0.06123008900869345,0.0012248829859091595,0.5778399442770271,5.815160513363741,-3.943265190732257,70.54980694537656
4.532966613769531,0.6957131709499998,1.0683952908999998,9.87218784195,0.07826000000000001,-0.13762,0.32312,0.35981999166249784,0.15668693359779096,-0.0009162978572970231,-0.8636107305024442,22.5,0.8114527417860388,0.0625215099763137,0.017903984440881926,0.5807882195597142,7.029452948143636,-2.4969977711835956,71.03214676696308
4.5469069480896,0.5108676251,0.8823533337499999,9.891330422749999,0.08498,-0.15246,0.32914000000000004,0.37255709844264145,0.20830504622552323,-0.015577063574049392,-0.813825213589306,22.5,0.816096700761719,0.05641870891197859,0.0009468638562757275,0.5751540730442414,5.357106779310377,-3.632317054504345,70.17947549628093
4.56225061416626,0.45224347139999993,0.8500502286499999,9.820742156049999,0.08498,-0.15246,0.32914000000000004,0.37255709844264145,0.24877486825614178,-0.012370021073509813,-0.7049384848805097,22.5,0.8184127273326156,0.04074355710364125,0.012739440081108722,0.5730429974800773,4.6643137754179085,-1.4808814971698863,69.93820476503204
4.576195955276489,0.4755734917499999,0.8967102693499999,9.993025383249998,0.08974000000000001,-0.14378,0.32564000000000004,0.36710674959744344,0.27198774730766634,0.007788531787024696,-0.6475171524898963,22.5,0.8233105838064162,0.05691238322624003,0.0036413349975949966,0.5647188715699901,5.623574116209406,-3.3412688188877455,68.72926165856468
4.590399980545044,0.5563312544999999,0.81774712355,10.091729315499999,0.08834,-0.16058,0.32704,0.3748933896456431,0.3159700444579235,0.038789942625573975,-0.5618433028326246,22.5,0.8227894748534308,0.03894337876836521,0.003965453888670057,0.5669966212385891,3.9352927288999027,-2.1568968502886743,69.0685140879142
4.604547739028931,0.6933203483499999,0.7387839777499999,10.1264252432,0.08834,-0.16058,0.32704,0.3748933896456431,0.36392296565646765,0.08384125394267762,-0.4720461128175164,22.5,0.8252977701919052,0.05436631493444588,-0.00811635230060063,0.5620160310365271,4.636761122599483,-4.272855780970727,68.33554309833514
4.618938207626343,0.705882667,0.7645068207,10.22273635285,0.0987,-0.16562000000000002,0.32284,0.3760283765887889,0.39507709280456643,0.10903944501834574,-0.37354409315808645,22.5,0.8262459721473545,0.03619089193797305,-0.0024128672075275147,0.5621405437458199,3.2762089541411714,-2.56059732380007,68.38597325649506
4.633561372756958,0.62871413815,0.7441678286,10.180861957349999,0.0987,-0.16562000000000002,0.32284,0.3760283765887889,0.43065999292960083,0.11942415406771201,-0.27137688206946836,22.5,0.8295960611948968,0.054676079438102355,-0.008126246509517394,0.5556211530394229,4.698588103119071,-4.25763487353983,67.4495652129439
4.6473846435546875,0.8135596839999999,0.6711867392999998,10.145567823999999,0.09394000000000001,-0.16982000000000003,0.31598000000000004,0.37081925030936574,0.4798346446045411,0.1105666081138408,-0.2017382449148946,22.5,0.8257766990974788,0.03959008970722134,-0.007045611968940932,0.5625618431573803,3.299129067657254,-3.220569783956371,68.43666326860354
4.662594556808472,0.7441678286,0.7597211755,10.2197453246,0.09394000000000001,-0.16982000000000003,0.31598000000000004,0.37081925030936574,0.5138903816340804,0.1269072532356377,-0.18005252895886503,22.5,0.8266349451141591,0.060544579339731376,-0.010104775001620691,0.5593808317692452,5.112405366132862,-4.843873750180117,67.95575797091762
4.676581382751465,0.7106683122,0.6580262149999999,10.201799155099998,0.0917,-0.16842000000000001,0.31794000000000006,0.3712950713381475,0.5902485364088323,0.15546520312139492,-0.15683964990734045,22.5,0.8241612822646347,0.04487707317055549,-0.00218813368528624,0.5645701384155322,4.106278590541316,-3.1115017157771385,68.71257446478499
4.690598249435425,0.8027919822999998,0.4199403663,10.21077223985,0.0917,-0.16842000000000001,0.31794000000000006,0.3712950713381475,0.6212499472473817,0.13332133823671685,-0.1389718416900485,22.5,0.8242306976617549,0.04177029705120702,-0.019131506214010784,0.5643872649043863,2.7173289955654845,-4.513086772366134,68.69524549950317
4.704647779464722,0.93260260835,0.2548356069,10.088738287249999,0.10010000000000001,-0.18074,0.31906,0.38011345832527427,0.6107125218884658,0.07254024703601432,-0.12186761502050407,22.5,0.8233233425186921,0.03456894655236785,-0.03453441588070151,0.5654653267158709,1.0284942940401447,-5.5066373831335715,68.91374432832093
4.720308542251587,0.8213363574499999,0.2739781877,10.08155981945,0.0959,-0.18830000000000002,0.31500000000000006,0.37931345876464767,0.6210972309378322,0.002901609881440573,-0.1067487003751032,22.5,0.8203721902231715,0.028344254285691487,-0.01674717847143582,0.570881427943378,1.5720227940170937,-3.4306436171836032,69.61956721063977
4.734353303909302,0.55094740365,0.3296113131499999,9.87697348715,0.0959,-0.18830000000000002,0.31500000000000006,0.37931345876464767,0.7009678608322226,-0.04780020488899471,-0.10262536001726659,22.5,0.8255831343813503,0.04679813853806598,-0.01164455846761091,0.5622159964929241,3.6892047698062465,-4.120161639797787,68.37639718473748
4.750230312347412,0.45403808835,0.14117653339999997,9.84945602725,0.09338,-0.20174,0.30674,0.37882486666004384,0.7822129375125587,-0.09819658704033098,-0.10506882097005865,22.5,0.8231932465199377,0.031644659009443896,-0.007004447283241836,0.5668354542178862,2.533775116167758,-2.717219775905568,69.0410380108276
4.764625072479248,0.57846486355,-0.15672988029999999,9.80279598655,0.09338,-0.20174,0.30674,0.37882486666004384,0.8155050929943505,-0.10094548061222204,-0.11407908323347937,22.5,0.8224484688844558,0.019978479789448406,-0.01775632787032391,0.5682113068176999,0.7277316832975929,-2.975637336103742,69.26055841236862
4.7801878452301025,0.66939212235,-0.28115665549999996,9.927820967399999,0.10318000000000001,-0.19978000000000004,0.30002000000000006,0.3749268744702092,0.8084801427550734,-0.038484510006474966,-0.09834930334988048,22.5,0.8254520430167538,0.02054577762270996,-0.033996566750895185,0.563072845332198,-0.2509424878708194,-4.546181798671775,68.60878982409908
4.794099807739258,0.5467599640999999,-0.37507494255,9.967302540299999,0.09562000000000001,-0.21434000000000003,0.30240000000000006,0.38279312950992217,0.8703302481226225,0.059712077033856004,-0.07223481441691533,22.5,0.8226530289701324,0.005884198886276404,-0.026505871984628865,0.5678950685470581,-1.1717619981325618,-2.8828207210093892,69.26579108266816
4.808988094329834,0.5653043392499999,-0.5168496816,9.89372324535,0.09562000000000001,-0.21434000000000003,0.30240000000000006,0.38279312950992217,0.9867000759993444,0.12492194121149415,-0.051312680008633295,22.5,0.822823072963774,-0.002961140119899859,-0.038733902350600445,0.5669683474907011,-2.8019627962749083,-3.461885978990282,69.22245953235279
4.822889566421509,0.6299105494499999,-0.8709874264,9.766305441899998,0.0917,-0.22274000000000002,0.29022000000000003,0.3771599740163317,1.0815369042295864,0.13775011121365247,-0.06948592084502425,22.5,0.8202913498857789,-0.016034782772079984,-0.04344161047124503,0.5700682533904894,-4.355374577058938,-3.0373948224129808,69.7109035265157
4.83689546585083,0.66341006585,-0.9475577495999999,9.64845892885,0.0917,-0.22274000000000002,0.29022000000000003,0.3771599740163317,1.1003210103041752,0.11239920382843482,-0.07192938179781631,22.5,0.8206109879775793,-0.01680829196469686,-0.05911652645993788,0.5681727941665303,-5.45431051401399,-4.4692076905032225,69.60872744613458
4.850925445556641,0.8931210354499999,-1.0480562988,9.64367328365,0.0931,-0.22974,0.2863,0.37870274305845736,1.0615310676786012,0.11270463644753384,-0.08261952346628158,22.5,0.8155275891663306,-0.024102647622758294,-0.06657237333146994,0.5743709017656983,-6.670994994274878,-4.640040681210916,70.58416163385394
4.865327596664429,0.7016952274499999,-1.13599252935,9.815956510849999,0.0931,-0.22974,0.2863,0.37870274305845736,1.045037706247255,0.16890423836175125,-0.09437867930159338,22.5,0.8144755247988427,-0.030973785887267465,-0.04638323570586149,0.5775108999290957,-5.975940655842632,-2.2798633622638977,70.79677074293159
4.879841566085815,0.5688935731499999,-1.2813565023,9.812965482600001,0.0903,-0.24262000000000003,0.28140000000000004,0.3823669891609369,1.0673342874414824,0.22082778360858257,-0.09437867930159338,22.5,0.8164207315634758,-0.029456963222520827,-0.06180935963381605,0.5733838848910245,-6.8487418093037356,-3.849998168175306,70.39228834361053
4.893815994262695,0.6317051664,-1.4554343464500001,9.6442714893,0.0903,-0.24262000000000003,0.28140000000000004,0.3823669891609369,1.1105530030439918,0.22586742182371622,-0.10873401239924674,22.5,0.8136476415319065,-0.04345130984335944,-0.0633408213627248,0.5762616067825083,-8.274287052489369,-3.0378459846086856,70.83544748431275
4.908292293548584,0.80099736535,-1.6881363442999997,9.661021247499999,0.09002000000000002,-0.25242000000000003,0.27412000000000003,0.38335522847614856,1.1633928461481204,0.21029035824966683,-0.1110247570424893,22.5,0.8136588713184472,-0.04213839877910484,-0.07868669359939022,0.574449302135114,-9.176836953019807,-4.5676148696698915,70.81152571395589
4.922289133071899,0.8015955709999999,-1.93758810035,9.558728081349999,0.09646,-0.26166,0.26306,0.3833680357045955,1.213636511989907,0.18356500407850365,-0.10216721108861808,22.5,0.8112836638797514,-0.05395659482719784,-0.0843354377106352,0.5760165245395791,-10.674113437776182,-4.2828444429865336,71.15027102131573
4.9379823207855225,0.9230313179499999,-2.00578354445,9.4145605197,0.09646,-0.26166,0.26306,0.3833680357045955,1.2215777600864812,0.14859296919166723,-0.1223257639491526,22.5,0.8120287393788255,-0.05152863916472353,-0.09974415840740711,0.5727174073068371,-11.478114319292239,-5.910080963099346,70.98452039075985
4.952042818069458,1.0127621654499999,-2.16370983605,9.189036989649999,0.08554,-0.26978,0.25984,0.38420719097903416,1.1991284625827043,0.12919799787888026,-0.17134769931454333,22.5,0.8066475967612915,-0.06186131374683289,-0.09523047630179622,0.5800206797038205,-12.179798500088463,-4.696244740395962,71.93743886456502
4.967886686325073,1.04027962535,-2.4993032057,9.2111705987,0.08554,-0.26978,0.25984,0.38420719097903416,1.176984597698026,0.13240504037941983,-0.18432858562625115,22.5,0.8035788796431105,-0.0694200595020619,-0.10462855055620492,0.5818029786265803,-13.545128849059001,-5.012725199442993,72.40585898427315
4.981954097747803,0.8195417404999998,-2.65184564645,9.322436849599999,0.09534000000000001,-0.2835,0.23478000000000002,0.38024152061551614,1.1791226260317191,0.16676621002805822,-0.14538592669112765,22.5,0.8017270768574654,-0.08158809893501112,-0.11029146450829666,0.5817326440920861,-15.071074357668342,-4.6990731163439685,72.55118125432948
4.996084928512573,0.8721838377,-2.6991038927999997,9.4253282214,0.09534000000000001,-0.2835,0.23478000000000002,0.38024152061551614,1.2205087459196349,0.2380847265876765,-0.10797043085149921,22.5,0.8044806873399626,-0.0807037035269986,-0.12428973987006489,0.5751954419995688,-15.926877714717843,-6.150278430693197,71.98993282539577
5.01080322265625,0.9469595439499999,-2.8618158296000002,9.42114078185,0.08918000000000001,-0.28574,0.22344000000000003,0.373531596521633,1.244485206518907,0.31642819338657197,-0.09392053037294487,22.5,0.7993144861459679,-0.09130901065015522,-0.11454746688513817,0.5827846039846073,-16.27857496398644,-4.3984426913230905,72.82136443111979
5.024829387664795,0.8979066806499999,-2.9419753867,9.2937229784,0.0777,-0.30562,0.22428000000000003,0.3869656222456977,1.2728904400951147,0.32696561874548774,-0.08048149513258852,22.5,0.7928533898571407,-0.09883416229388853,-0.11236710194064115,0.5907528628429721,-16.859856329080056,-3.520642704286951,73.90130901781865
5.039551496505737,1.0755737586999998,-3.0933214161499993,9.107082815599998,0.0777,-0.30562,0.22428000000000003,0.3869656222456977,1.3119858153397874,0.3017674276698196,-0.07819075048934597,22.5,0.7908770914511545,-0.09635206253667544,-0.12532407734605747,0.5912051944122702,-17.55755457310038,-4.836015072570818,74.30576603728025
5.053774833679199,1.2143574695,-3.3804601281499997,8.793623055,0.07882,-0.32242000000000004,0.20650000000000002,0.39090855554720216,1.3437508077260845,0.28557949885757217,-0.06307183584394509,22.5,0.7864799076074627,-0.1011210760620916,-0.13315810345868961,0.5945526069147175,-18.5824466658604,-5.118088533095761,75.01398808643759
5.067888259887695,1.1952148887,-3.5874392830499997,8.671589102399999,0.07882,-0.32242000000000004,0.20650000000000002,0.39090855554720216,1.3194689145077132,0.2693915700453248,-0.0557414529855689,22.5,0.7825262806595941,-0.10698358888054167,-0.1412158679614146,0.5968795610700754,-19.723701641698952,-5.353345462798234,75.6011544734864
5.081988334655762,1.0594222061499998,-3.7794632966999995,8.778667913749999,0.08134000000000001,-0.3269,0.19992000000000001,0.3917241529443902,1.2849550285495253,0.22937989694335478,-0.0711658002500688,22.5,0.7786527884616069,-0.11527007603429798,-0.14766810640781658,0.598837853631466,-20.970301069300564,-5.273393730118506,76.10216725291464
5.096123218536377,1.0947163395,-3.91525597925,8.87797005165,0.08134000000000001,-0.3269,0.19992000000000001,0.3917241529443902,1.2722795748569167,0.20708331574912722,-0.15332717478770186,22.5,0.7758405452313256,-0.12136977457841552,-0.156911746056756,0.5989319912505627,-22.21663736308054,-5.629339142273964,76.44085309615467
5.112192869186401,1.3232308977999998,-3.978067572499999,8.89591622115,0.08526,-0.33418000000000003,0.18676,0.3922050963462867,1.2988522127185302,0.22266037932317662,-0.16523904693256317,22.5,0.7751242813998266,-0.11879684715746162,-0.1703510011456023,0.5966994167070553,-22.978931994059668,-7.02569068014283,76.60873052892666
5.126309156417847,1.52721902445,-4.113262049399999,8.8809610799,0.0931,-0.3577,0.1743,0.40865314142925663,1.332144368200322,0.25182919444713187,-0.10201449477906857,22.5,0.7718508941037007,-0.11916903928796649,-0.18103591193403118,0.5977214534686829,-23.84043914026174,-7.874614578236031,77.17326093988393
5.140756368637085,1.4650056368500002,-4.51705086315,8.760123538599998,0.0931,-0.3577,0.1743,0.40865314142925663,1.346652417607525,0.23548854932533494,-0.053603424651875856,22.5,0.7675131644568246,-0.12744117115285378,-0.18625759959996607,0.5999919973398972,-25.017031112591866,-7.642000005816866,77.7297535998411
5.155254602432251,1.5092728549499999,-4.622335057549999,8.560322851499999,0.08582000000000001,-0.3633,0.17598000000000003,0.4126995551245482,1.380250005708416,0.17592918860102846,-0.019394971312786988,22.5,0.7625008197246622,-0.13387926407372316,-0.19174600025899277,0.6032431632061608,-26.058219241320106,-7.520994006415839,78.44045356081773
5.170482873916626,1.2394821068,-4.69292332425,8.28813928075,0.08582000000000001,-0.3633,0.17598000000000003,0.4126995551245482,1.466382004294336,0.1308778772839248,-0.03665191429188092,22.5,0.7579749228363193,-0.1430618085719475,-0.19464355533272448,0.605905290987656,-27.13808120786734,-6.990574050481986,78.96502214557952
5.18558931350708,1.29511523225,-4.90229530175,8.308478272849998,0.08974000000000001,-0.37394000000000005,0.14868,0.41229859762070503,1.5268576628759394,0.12202033133005358,-0.05833763024791047,22.5,0.7559938362127961,-0.14836247390752497,-0.20350062890307893,0.604193172735633,-28.304355614235273,-7.377794432864535,79.12669334769879
